SUBJECT ID	CONDITION	BLOCK	TRIAL NUM	CUMULATIVE TRIAL NUM	STIM	INK	MASK	STIM RACE	RESPONSE	RT	START TIME
025	1	80	01	01	black_mb003.bmp	pd_sm_inkblot_170816_1750_034.png	pdPR_noiseMask_170814_1952_052.png	1	1	1.985627	9056.120948
025	1	80	02	02	white_00577_940928_fa_edt.bmp	pd_sm_inkblot_170816_1750_068.png	pdPR_noiseMask_170814_1952_033.png	0	0	1.119069	9058.403621
025	1	80	03	03	other_00461_940422_fb_edt.bmp	pd_sm_inkblot_170816_1750_081.png	pdPR_noiseMask_170814_1952_099.png	2	0	1.270371	9059.836361
025	1	1	01	01	white_00764_941201_fa_edt.bmp	pd_sm_inkblot_170816_1750_080.png	pdPR_noiseMask_170814_1952_029.png	0	1	1.293261	9067.533789
025	1	1	02	02	black_39M_NE_C.bmp	pd_sm_inkblot_170816_1750_014.png	pdPR_noiseMask_170814_1952_069.png	1	1	1.072547	9069.049912
025	1	1	03	03	other_00490_940519_fb_edt.bmp	pd_sm_inkblot_170816_1750_072.png	pdPR_noiseMask_170814_1952_048.png	2	0	1.013057	9070.349458
025	1	1	04	04	black_mb008.bmp	pd_sm_inkblot_170816_1750_050.png	pdPR_noiseMask_170814_1952_028.png	1	1	0.875436	9071.599050
025	1	1	05	05	white_00659_941121_fa_edt.bmp	pd_sm_inkblot_170816_1750_028.png	pdPR_noiseMask_170814_1952_007.png	0	0	0.792257	9072.698709
025	1	1	06	06	other_00282_940422_fb_edt.bmp	pd_sm_inkblot_170816_1750_073.png	pdPR_noiseMask_170814_1952_051.png	2	1	0.767320	9073.715000
025	1	1	07	07	other_00570_940928_fa_edt.bmp	pd_sm_inkblot_170816_1750_099.png	pdPR_noiseMask_170814_1952_023.png	2	0	1.352250	9074.714648
025	1	1	08	08	other_00096_940128_fb_edt.bmp	pd_sm_inkblot_170816_1750_000.png	pdPR_noiseMask_170814_1952_059.png	2	0	2.073452	9076.297461
025	1	1	09	09	black_00586_940928_fa_edt.bmp	pd_sm_inkblot_170816_1750_001.png	pdPR_noiseMask_170814_1952_087.png	1	0	1.237626	9078.596770
025	1	1	10	10	white_mw003.bmp	pd_sm_inkblot_170816_1750_088.png	pdPR_noiseMask_170814_1952_069.png	0	0	0.667813	9080.062849
025	1	1	11	11	white_00658_941121_fb_edt.bmp	pd_sm_inkblot_170816_1750_063.png	pdPR_noiseMask_170814_1952_018.png	0	0	0.647787	9080.962552
025	1	1	12	12	white_00939_960627_fa_edt.bmp	pd_sm_inkblot_170816_1750_017.png	pdPR_noiseMask_170814_1952_039.png	0	0	0.805200	9081.845585
025	1	1	13	13	other_00601_940928_fb_edt.bmp	pd_sm_inkblot_170816_1750_093.png	pdPR_noiseMask_170814_1952_027.png	2	0	0.676090	9082.878567
025	1	1	14	14	white_00816_941205_fa_edt.bmp	pd_sm_inkblot_170816_1750_084.png	pdPR_noiseMask_170814_1952_059.png	0	1	0.704570	9083.778279
025	1	1	15	15	white_mw019.bmp	pd_sm_inkblot_170816_1750_042.png	pdPR_noiseMask_170814_1952_065.png	0	0	0.667072	9084.711268
025	1	1	16	16	black_mb002.bmp	pd_sm_inkblot_170816_1750_028.png	pdPR_noiseMask_170814_1952_077.png	1	0	1.007399	9085.610977
025	1	1	17	17	black_mb005.bmp	pd_sm_inkblot_170816_1750_073.png	pdPR_noiseMask_170814_1952_079.png	1	0	0.750387	9086.843892
025	1	1	18	18	black_00531_940519_fa_edt.bmp	pd_sm_inkblot_170816_1750_099.png	pdPR_noiseMask_170814_1952_043.png	1	1	1.447955	9087.826894
025	1	1	19	19	white_00109_931230_fa_edt.bmp	pd_sm_inkblot_170816_1750_025.png	pdPR_noiseMask_170814_1952_097.png	0	1	0.637180	9089.509660
025	1	1	20	20	black_00857_940307_fa_edt.bmp	pd_sm_inkblot_170816_1750_011.png	pdPR_noiseMask_170814_1952_019.png	1	1	0.594509	9090.376033
025	1	1	21	21	other_00205_940128_fa_edt.bmp	pd_sm_inkblot_170816_1750_052.png	pdPR_noiseMask_170814_1952_003.png	2	1	0.649836	9091.192431
025	1	1	22	22	black_00257_940128_fa_edt.bmp	pd_sm_inkblot_170816_1750_086.png	pdPR_noiseMask_170814_1952_040.png	1	1	0.806796	9092.075442
025	1	1	23	23	black_mb026.bmp	pd_sm_inkblot_170816_1750_010.png	pdPR_noiseMask_170814_1952_011.png	1	1	0.510360	9093.108437
025	1	1	24	24	white_00972_960627_fa_edt.bmp	pd_sm_inkblot_170816_1750_023.png	pdPR_noiseMask_170814_1952_001.png	0	0	0.905231	9093.841511
025	1	1	25	25	other_00619_940928_fa_edt.bmp	pd_sm_inkblot_170816_1750_078.png	pdPR_noiseMask_170814_1952_054.png	2	1	1.108105	9094.974489
025	1	1	26	26	other_00247_941121_fb_edt.bmp	pd_sm_inkblot_170816_1750_019.png	pdPR_noiseMask_170814_1952_022.png	2	1	1.391206	9096.307358
025	1	1	27	27	white_00591_940928_fa_edt.bmp	pd_sm_inkblot_170816_1750_055.png	pdPR_noiseMask_170814_1952_098.png	0	0	0.894701	9097.923479
025	1	1	28	28	black_00453_940422_fb_edt.bmp	pd_sm_inkblot_170816_1750_084.png	pdPR_noiseMask_170814_1952_045.png	1	0	0.514450	9099.039753
025	1	1	29	29	other_00058_931230_fa_edt.bmp	pd_sm_inkblot_170816_1750_037.png	pdPR_noiseMask_170814_1952_030.png	2	1	0.685314	9099.789511
025	1	1	30	30	other_00545_940519_fa_edt.bmp	pd_sm_inkblot_170816_1750_070.png	pdPR_noiseMask_170814_1952_029.png	2	1	0.632823	9100.705854
025	1	2	01	31	black_00801_941205_fa_edt.bmp	pd_sm_inkblot_170816_1750_097.png	pdPR_noiseMask_170814_1952_066.png	1	1	2.462885	9107.603536
025	1	2	02	32	other_00132_931230_fb_edt.bmp	pd_sm_inkblot_170816_1750_098.png	pdPR_noiseMask_170814_1952_026.png	2	1	1.339820	9110.302622
025	1	2	03	33	black_mb011.bmp	pd_sm_inkblot_170816_1750_052.png	pdPR_noiseMask_170814_1952_003.png	1	1	0.997278	9111.868758
025	1	2	04	34	white_00120_931230_fa_edt.bmp	pd_sm_inkblot_170816_1750_097.png	pdPR_noiseMask_170814_1952_087.png	0	0	1.332876	9113.101684
025	1	2	05	35	black_mb033.bmp	pd_sm_inkblot_170816_1750_062.png	pdPR_noiseMask_170814_1952_051.png	1	1	0.846779	9114.667816
025	1	2	06	36	white_00766_941201_fb_edt.bmp	pd_sm_inkblot_170816_1750_011.png	pdPR_noiseMask_170814_1952_092.png	0	1	0.891287	9115.750765
025	1	2	07	37	black_mb029.bmp	pd_sm_inkblot_170816_1750_013.png	pdPR_noiseMask_170814_1952_062.png	1	0	2.134997	9116.867067
025	1	2	08	38	other_00070_941121_fb_edt.bmp	pd_sm_inkblot_170816_1750_049.png	pdPR_noiseMask_170814_1952_044.png	2	0	0.745459	9119.232920
025	1	2	09	39	white_00519_940519_fb_edt.bmp	pd_sm_inkblot_170816_1750_019.png	pdPR_noiseMask_170814_1952_005.png	0	1	0.666991	9120.199273
025	1	2	10	40	other_00216_940128_fa_edt.bmp	pd_sm_inkblot_170816_1750_085.png	pdPR_noiseMask_170814_1952_062.png	2	0	0.687533	9121.098955
025	1	2	11	41	black_00746_941201_fb_edt.bmp	pd_sm_inkblot_170816_1750_017.png	pdPR_noiseMask_170814_1952_039.png	1	1	0.642668	9122.015326
025	1	2	12	42	other_00588_940928_fa_edt.bmp	pd_sm_inkblot_170816_1750_080.png	pdPR_noiseMask_170814_1952_001.png	2	1	0.592779	9122.881700
025	1	2	13	43	other_00578_940928_fa_edt.bmp	pd_sm_inkblot_170816_1750_084.png	pdPR_noiseMask_170814_1952_071.png	2	0	1.256382	9123.698103
025	1	2	14	44	other_00318_940422_fb_edt.bmp	pd_sm_inkblot_170816_1750_014.png	pdPR_noiseMask_170814_1952_028.png	2	1	0.573018	9125.180944
025	1	2	15	45	white_00341_940422_fa_edt.bmp	pd_sm_inkblot_170816_1750_043.png	pdPR_noiseMask_170814_1952_040.png	0	1	0.621363	9125.980650
025	1	2	16	46	white_00874_940307_fa_edt.bmp	pd_sm_inkblot_170816_1750_001.png	pdPR_noiseMask_170814_1952_042.png	0	1	1.220120	9126.830363
025	1	2	17	47	white_00340_940422_fa_edt.bmp	pd_sm_inkblot_170816_1750_099.png	pdPR_noiseMask_170814_1952_049.png	0	1	1.218556	9128.279876
025	1	2	18	48	other_00604_940928_fb_edt.bmp	pd_sm_inkblot_170816_1750_038.png	pdPR_noiseMask_170814_1952_018.png	2	1	0.600953	9129.729368
025	1	2	19	49	other_00122_931230_fa_edt.bmp	pd_sm_inkblot_170816_1750_077.png	pdPR_noiseMask_170814_1952_008.png	2	1	0.671994	9130.562421
025	1	2	20	50	black_00677_941121_fa_edt.bmp	pd_sm_inkblot_170816_1750_033.png	pdPR_noiseMask_170814_1952_071.png	1	0	0.716048	9131.462131
025	1	2	21	51	white_00757_941201_fa_edt.bmp	pd_sm_inkblot_170816_1750_010.png	pdPR_noiseMask_170814_1952_044.png	0	0	0.557927	9132.411938
025	1	2	22	52	black_00467_940519_fb_edt.bmp	pd_sm_inkblot_170816_1750_091.png	pdPR_noiseMask_170814_1952_032.png	1	0	0.551541	9133.194876
025	1	2	23	53	white_mw013.bmp	pd_sm_inkblot_170816_1750_004.png	pdPR_noiseMask_170814_1952_009.png	0	1	0.712294	9133.977966
025	1	2	24	54	black_mb030.bmp	pd_sm_inkblot_170816_1750_031.png	pdPR_noiseMask_170814_1952_049.png	1	0	0.595458	9134.910964
025	1	2	25	55	other_00139_931230_fb_edt.bmp	pd_sm_inkblot_170816_1750_004.png	pdPR_noiseMask_170814_1952_083.png	2	1	1.290489	9135.727354
025	1	2	26	56	black_mb020.bmp	pd_sm_inkblot_170816_1750_088.png	pdPR_noiseMask_170814_1952_097.png	1	0	0.870353	9137.243508
025	1	2	27	57	white_mw006.bmp	pd_sm_inkblot_170816_1750_057.png	pdPR_noiseMask_170814_1952_020.png	0	0	0.994727	9138.343139
025	1	2	28	58	black_mb001.bmp	pd_sm_inkblot_170816_1750_000.png	pdPR_noiseMask_170814_1952_090.png	1	1	0.498395	9139.559391
025	1	2	29	59	other_00237_940128_fb_edt.bmp	pd_sm_inkblot_170816_1750_096.png	pdPR_noiseMask_170814_1952_042.png	2	1	0.653326	9140.292476
025	1	2	30	60	white_00602_940928_fb_edt.bmp	pd_sm_inkblot_170816_1750_031.png	pdPR_noiseMask_170814_1952_011.png	0	0	0.498365	9141.175509
025	1	3	01	61	other_00114_931230_fa_edt.bmp	pd_sm_inkblot_170816_1750_044.png	pdPR_noiseMask_170814_1952_069.png	2	1	0.734365	9147.939887
025	1	3	02	62	other_00583_940928_fa_edt.bmp	pd_sm_inkblot_170816_1750_091.png	pdPR_noiseMask_170814_1952_017.png	2	1	0.680033	9148.906216
025	1	3	03	63	black_00108_940128_fb_edt.bmp	pd_sm_inkblot_170816_1750_043.png	pdPR_noiseMask_170814_1952_057.png	1	1	0.747664	9149.822583
025	1	3	04	64	other_00614_940928_fa_edt.bmp	pd_sm_inkblot_170816_1750_020.png	pdPR_noiseMask_170814_1952_019.png	2	0	1.412103	9150.805586
025	1	3	05	65	other_00616_940928_fa_edt_rot.bmp	pd_sm_inkblot_170816_1750_028.png	pdPR_noiseMask_170814_1952_038.png	2	0	0.779314	9152.438351
025	1	3	06	66	white_00807_941205_fb_edt.bmp	pd_sm_inkblot_170816_1750_040.png	pdPR_noiseMask_170814_1952_002.png	0	0	0.691312	9153.454690
025	1	3	07	67	black_mb019.bmp	pd_sm_inkblot_170816_1750_042.png	pdPR_noiseMask_170814_1952_005.png	1	0	0.838623	9154.371046
025	1	3	08	68	other_00584_940928_fa_edt.bmp	pd_sm_inkblot_170816_1750_001.png	pdPR_noiseMask_170814_1952_043.png	2	0	0.500571	9155.437365
025	1	3	09	69	white_mw018.bmp	pd_sm_inkblot_170816_1750_078.png	pdPR_noiseMask_170814_1952_071.png	0	1	0.887245	9156.170424
025	1	3	10	70	white_mw002.bmp	pd_sm_inkblot_170816_1750_059.png	pdPR_noiseMask_170814_1952_057.png	0	0	1.243434	9157.286712
025	1	3	11	71	other_00580_940928_fa_edt.bmp	pd_sm_inkblot_170816_1750_050.png	pdPR_noiseMask_170814_1952_040.png	2	1	0.688974	9158.752897
025	1	3	12	72	black_00273_940422_fa_edt.bmp	pd_sm_inkblot_170816_1750_019.png	pdPR_noiseMask_170814_1952_020.png	1	1	0.764407	9159.669256
025	1	3	13	73	black_mb004.bmp	pd_sm_inkblot_170816_1750_003.png	pdPR_noiseMask_170814_1952_044.png	1	1	0.948775	9160.668916
025	1	3	14	74	white_00960_960627_fb_edt.bmp	pd_sm_inkblot_170816_1750_038.png	pdPR_noiseMask_170814_1952_080.png	0	1	0.534152	9161.851835
025	1	3	15	75	black_mb017.bmp	pd_sm_inkblot_170816_1750_070.png	pdPR_noiseMask_170814_1952_083.png	1	1	1.127847	9162.618257
025	1	3	16	76	white_mw028.bmp	pd_sm_inkblot_170816_1750_065.png	pdPR_noiseMask_170814_1952_032.png	0	0	0.618261	9163.967792
025	1	3	17	77	other_00610_940928_fa_edt.bmp	pd_sm_inkblot_170816_1750_086.png	pdPR_noiseMask_170814_1952_049.png	2	0	0.688069	9164.817511
025	1	3	18	78	other_00119_931230_fb_edt.bmp	pd_sm_inkblot_170816_1750_040.png	pdPR_noiseMask_170814_1952_011.png	2	0	0.628236	9165.733862
025	1	3	19	79	other_00611_940928_fa_edt_rot.bmp	pd_sm_inkblot_170816_1750_055.png	pdPR_noiseMask_170814_1952_085.png	2	1	0.769934	9166.583580
025	1	3	20	80	white_00597_940928_fb_edt.bmp	pd_sm_inkblot_170816_1750_003.png	pdPR_noiseMask_170814_1952_034.png	0	0	0.698608	9167.583244
025	1	3	21	81	white_mw009.bmp	pd_sm_inkblot_170816_1750_086.png	pdPR_noiseMask_170814_1952_003.png	0	0	0.677755	9168.516256
025	1	3	22	82	black_mb031.bmp	pd_sm_inkblot_170816_1750_025.png	pdPR_noiseMask_170814_1952_080.png	1	0	0.665587	9169.415956
025	1	3	23	83	black_mb013.bmp	pd_sm_inkblot_170816_1750_020.png	pdPR_noiseMask_170814_1952_002.png	1	0	0.670475	9170.315651
025	1	3	24	84	white_00283_940422_fa_edt.bmp	pd_sm_inkblot_170816_1750_077.png	pdPR_noiseMask_170814_1952_022.png	0	1	0.690361	9171.215334
025	1	3	25	85	white_mw022.bmp	pd_sm_inkblot_170816_1750_021.png	pdPR_noiseMask_170814_1952_028.png	0	1	2.061872	9172.131704
025	1	3	26	86	black_mb006.bmp	pd_sm_inkblot_170816_1750_023.png	pdPR_noiseMask_170814_1952_026.png	1	0	0.947099	9174.430926
025	1	3	27	87	black_00488_940519_fb_edt.bmp	pd_sm_inkblot_170816_1750_024.png	pdPR_noiseMask_170814_1952_048.png	1	0	0.603635	9175.613859
025	1	3	28	88	black_00917_960620_fa_edt.bmp	pd_sm_inkblot_170816_1750_072.png	pdPR_noiseMask_170814_1952_022.png	1	0	0.723183	9176.446912
025	1	3	29	89	white_00299_940422_fa_edt.bmp	pd_sm_inkblot_170816_1750_091.png	pdPR_noiseMask_170814_1952_027.png	0	0	0.516989	9177.396573
025	1	3	30	90	other_00516_940519_fb_edt.bmp	pd_sm_inkblot_170816_1750_062.png	pdPR_noiseMask_170814_1952_092.png	2	1	0.575197	9178.146333
025	1	4	01	91	white_mw016.bmp	pd_sm_inkblot_170816_1750_073.png	pdPR_noiseMask_170814_1952_054.png	0	1	2.272051	9184.977358
025	1	4	02	92	white_mw024.bmp	pd_sm_inkblot_170816_1750_049.png	pdPR_noiseMask_170814_1952_023.png	0	0	0.876851	9187.476511
025	1	4	03	93	other_00116_931230_fa_edt.bmp	pd_sm_inkblot_170816_1750_021.png	pdPR_noiseMask_170814_1952_020.png	2	0	1.001740	9188.576125
025	1	4	04	94	black_00716_941201_fa_edt_rot.bmp	pd_sm_inkblot_170816_1750_077.png	pdPR_noiseMask_170814_1952_001.png	1	1	1.008297	9189.809040
025	1	4	05	95	white_mw012.bmp	pd_sm_inkblot_170816_1750_033.png	pdPR_noiseMask_170814_1952_026.png	0	1	0.671352	9191.041972
025	1	4	06	96	other_00261_940128_fb_edt.bmp	pd_sm_inkblot_170816_1750_010.png	pdPR_noiseMask_170814_1952_079.png	2	1	0.652118	9191.941667
025	1	4	07	97	black_mb018.bmp	pd_sm_inkblot_170816_1750_063.png	pdPR_noiseMask_170814_1952_038.png	1	0	1.313167	9192.824702
025	1	4	08	98	black_mb035.bmp	pd_sm_inkblot_170816_1750_098.png	pdPR_noiseMask_170814_1952_042.png	1	1	0.979150	9194.374192
025	1	4	09	99	white_00248_940128_fa_edt.bmp	pd_sm_inkblot_170816_1750_013.png	pdPR_noiseMask_170814_1952_085.png	0	0	0.651406	9195.590419
025	1	4	10	100	other_00587_940928_fa_edt.bmp	pd_sm_inkblot_170816_1750_088.png	pdPR_noiseMask_170814_1952_039.png	2	0	0.479856	9196.473454
025	1	4	11	101	black_mb021.bmp	pd_sm_inkblot_170816_1750_059.png	pdPR_noiseMask_170814_1952_098.png	1	1	0.723940	9197.189892
025	1	4	12	102	white_00199_940128_fa_edt.bmp	pd_sm_inkblot_170816_1750_062.png	pdPR_noiseMask_170814_1952_096.png	0	1	0.557704	9198.139556
025	1	4	13	103	black_00332_940422_fa_edt_contrast.bmp	pd_sm_inkblot_170816_1750_037.png	pdPR_noiseMask_170814_1952_085.png	1	1	0.527134	9198.922629
025	1	4	14	104	black_00964_960627_fb_edt.bmp	pd_sm_inkblot_170816_1750_085.png	pdPR_noiseMask_170814_1952_023.png	1	0	0.505414	9199.672391
025	1	4	15	105	other_00246_940128_fa_edt.bmp	pd_sm_inkblot_170816_1750_017.png	pdPR_noiseMask_170814_1952_097.png	2	1	0.652045	9200.405467
025	1	4	16	106	white_mw004.bmp	pd_sm_inkblot_170816_1750_070.png	pdPR_noiseMask_170814_1952_062.png	0	1	0.649120	9201.288519
025	1	4	17	107	white_mw008.bmp	pd_sm_inkblot_170816_1750_052.png	pdPR_noiseMask_170814_1952_030.png	0	0	0.518259	9202.171543
025	1	4	18	108	other_00234_940128_fb_edt.bmp	pd_sm_inkblot_170816_1750_057.png	pdPR_noiseMask_170814_1952_007.png	2	1	0.896333	9202.921293
025	1	4	19	109	black_mb023.bmp	pd_sm_inkblot_170816_1750_065.png	pdPR_noiseMask_170814_1952_034.png	1	1	0.827326	9204.054237
025	1	4	20	110	black_00929_960627_fa_edt.bmp	pd_sm_inkblot_170816_1750_057.png	pdPR_noiseMask_170814_1952_030.png	1	1	0.801372	9205.103870
025	1	4	21	111	black_mb009.bmp	pd_sm_inkblot_170816_1750_049.png	pdPR_noiseMask_170814_1952_092.png	1	1	0.688882	9206.136850
025	1	4	22	112	white_mw010.bmp	pd_sm_inkblot_170816_1750_024.png	pdPR_noiseMask_170814_1952_017.png	0	0	0.843842	9207.053222
025	1	4	23	113	other_00193_940128_fa_edt.bmp	pd_sm_inkblot_170816_1750_025.png	pdPR_noiseMask_170814_1952_045.png	2	1	1.114158	9208.119528
025	1	4	24	114	black_mb027.bmp	pd_sm_inkblot_170816_1750_093.png	pdPR_noiseMask_170814_1952_008.png	1	1	0.844102	9209.469058
025	1	4	25	115	other_00110_931230_fb_edt.bmp	pd_sm_inkblot_170816_1750_031.png	pdPR_noiseMask_170814_1952_065.png	2	1	0.817800	9210.535381
025	1	4	26	116	other_00046_931230_fa_edt.bmp	pd_sm_inkblot_170816_1750_013.png	pdPR_noiseMask_170814_1952_005.png	2	0	0.720686	9211.585011
025	1	4	27	117	white_mw015.bmp	pd_sm_inkblot_170816_1750_072.png	pdPR_noiseMask_170814_1952_083.png	0	1	0.914953	9212.534706
025	1	4	28	118	other_00097_931230_fa_edt.bmp	pd_sm_inkblot_170816_1750_065.png	pdPR_noiseMask_170814_1952_077.png	2	0	0.917348	9213.684297
025	1	4	29	119	white_00761_941201_fb_edt.bmp	pd_sm_inkblot_170816_1750_093.png	pdPR_noiseMask_170814_1952_051.png	0	0	0.615191	9214.833921
025	1	4	30	120	other_00383_941031_fa_edt_rot.bmp	pd_sm_inkblot_170816_1750_043.png	pdPR_noiseMask_170814_1952_066.png	2	0	0.445942	9215.683636
025	1	5	01	121	other_00596_940928_fa_edt.bmp	pd_sm_inkblot_170816_1750_033.png	pdPR_noiseMask_170814_1952_098.png	2	1	0.779344	9222.398028
025	1	5	02	122	white_00050_931230_fa_edt.bmp	pd_sm_inkblot_170816_1750_047.png	pdPR_noiseMask_170814_1952_045.png	0	1	0.586693	9223.414352
025	1	5	03	123	black_mb025.bmp	pd_sm_inkblot_170816_1750_047.png	pdPR_noiseMask_170814_1952_065.png	1	1	0.442326	9224.230729
025	1	5	04	124	white_00223_940128_fb_edt.bmp	pd_sm_inkblot_170816_1750_014.png	pdPR_noiseMask_170814_1952_038.png	0	1	0.728140	9224.897185
025	1	5	05	125	other_00029_940128_fa_edt.bmp	pd_sm_inkblot_170816_1750_003.png	pdPR_noiseMask_170814_1952_034.png	2	0	0.698151	9225.846849
025	1	5	06	126	other_00415_940422_fb_edt_rot.bmp	pd_sm_inkblot_170816_1750_023.png	pdPR_noiseMask_170814_1952_096.png	2	0	0.605460	9226.779867
025	1	5	07	127	white_00129_931230_fb_edt.bmp	pd_sm_inkblot_170816_1750_037.png	pdPR_noiseMask_170814_1952_079.png	0	1	0.772106	9227.612921
025	1	5	08	128	white_00785_941205_fb_edt.bmp	pd_sm_inkblot_170816_1750_000.png	pdPR_noiseMask_170814_1952_019.png	0	0	0.700944	9228.612595
025	1	5	09	129	black_00358_940422_fb_edt.bmp	pd_sm_inkblot_170816_1750_040.png	pdPR_noiseMask_170814_1952_027.png	1	0	0.823721	9229.545611
025	1	5	10	130	white_00657_941121_fa_edt.bmp	pd_sm_inkblot_170816_1750_020.png	pdPR_noiseMask_170814_1952_043.png	0	0	0.725720	9230.595257
025	1	5	11	131	other_00575_940928_fb_edt.bmp	pd_sm_inkblot_170816_1750_042.png	pdPR_noiseMask_170814_1952_080.png	2	0	0.672314	9231.544949
025	1	5	12	132	white_mw001.bmp	pd_sm_inkblot_170816_1750_050.png	pdPR_noiseMask_170814_1952_008.png	0	0	0.772805	9232.444648
025	1	5	13	133	black_mb016.bmp	pd_sm_inkblot_170816_1750_080.png	pdPR_noiseMask_170814_1952_059.png	1	1	0.708712	9233.444291
025	1	5	14	134	black_mb014.bmp	pd_sm_inkblot_170816_1750_096.png	pdPR_noiseMask_170814_1952_096.png	1	1	0.592030	9234.377305
025	1	5	15	135	other_00512_940519_fa_edt.bmp	pd_sm_inkblot_170816_1750_024.png	pdPR_noiseMask_170814_1952_002.png	2	0	0.543212	9235.193703
025	1	5	16	136	white_00897_960530_fb_edt.bmp	pd_sm_inkblot_170816_1750_044.png	pdPR_noiseMask_170814_1952_048.png	0	1	0.648831	9235.960119
025	1	5	17	137	white_00253_940128_fa_edt.bmp	pd_sm_inkblot_170816_1750_096.png	pdPR_noiseMask_170814_1952_066.png	0	1	0.557802	9236.843153
025	1	5	18	138	other_00617_940928_fb_edt.bmp	pd_sm_inkblot_170816_1750_047.png	pdPR_noiseMask_170814_1952_032.png	2	1	0.566544	9237.626221
025	1	5	19	139	other_00618_940928_fb_edt.bmp	pd_sm_inkblot_170816_1750_097.png	pdPR_noiseMask_170814_1952_090.png	2	0	0.695476	9238.425946
025	1	5	20	140	black_00183_940128_fb_edt.bmp	pd_sm_inkblot_170816_1750_004.png	pdPR_noiseMask_170814_1952_009.png	1	0	0.595124	9239.342310
025	1	5	21	141	other_00566_940928_fb_edt.bmp	pd_sm_inkblot_170816_1750_011.png	pdPR_noiseMask_170814_1952_057.png	2	0	0.514188	9240.158691
025	1	5	22	142	black_00558_940519_fa_edt.bmp	pd_sm_inkblot_170816_1750_055.png	pdPR_noiseMask_170814_1952_018.png	1	0	0.540812	9240.908426
025	1	5	23	143	black_mb010.bmp	pd_sm_inkblot_170816_1750_078.png	pdPR_noiseMask_170814_1952_029.png	1	1	0.614033	9241.674845
025	1	5	24	144	black_38M_NE_C.bmp	pd_sm_inkblot_170816_1750_038.png	pdPR_noiseMask_170814_1952_007.png	1	1	0.940702	9242.524543
025	1	5	25	145	other_00178_931230_fa_edt.bmp	pd_sm_inkblot_170816_1750_063.png	pdPR_noiseMask_170814_1952_009.png	2	0	0.862252	9243.690830
025	1	5	26	146	other_00582_940928_fb_edt.bmp	pd_sm_inkblot_170816_1750_059.png	pdPR_noiseMask_170814_1952_087.png	2	1	0.874907	9244.790456
025	1	5	27	147	black_mb015.bmp	pd_sm_inkblot_170816_1750_021.png	pdPR_noiseMask_170814_1952_054.png	1	0	0.847057	9245.890084
025	1	5	28	148	black_mb032.bmp	pd_sm_inkblot_170816_1750_044.png	pdPR_noiseMask_170814_1952_017.png	1	1	0.739991	9246.973037
025	1	5	29	149	white_mw025.bmp	pd_sm_inkblot_170816_1750_085.png	pdPR_noiseMask_170814_1952_077.png	0	0	1.661863	9247.939394
025	1	5	30	150	white_00898_960530_fa_edt.bmp	pd_sm_inkblot_170816_1750_098.png	pdPR_noiseMask_170814_1952_090.png	0	1	0.834752	9249.822097
