SUBJECT ID	CONDITION	BLOCK	TRIAL NUM	CUMULATIVE TRIAL NUM	STIM	PARTNER RACE	RESPONSE	RT	START TIME
025	1	1	01	01	white_mw068.bmp	0	4	10.342704	3839.165639
025	1	1	02	02	black_mb081.bmp	1	6	2.376087	3849.628234
025	1	1	03	03	other_00733_941201_fa_edt.bmp	2	3	3.620873	3852.127349
025	1	1	04	04	white_mw039.bmp	0	5	2.560724	3855.859376
025	1	1	05	05	other_00623_940928_fb_edt.bmp	2	4	3.486226	3858.541858
025	1	1	06	06	other_00921_960627_fb_edt.bmp	2	4	4.174910	3862.157121
025	1	1	07	07	black_mb038.bmp	1	2	2.404904	3866.438937
025	1	1	08	08	black_mb071.bmp	1	2	1.880999	3868.954741
025	1	1	09	09	other_00622_940928_fb_edt.bmp	2	2	1.809717	3870.954031
025	1	1	10	10	other_00841_940307_fb_edt.bmp	2	5	12.132679	3872.886662
025	1	1	11	11	other_00652_941031_fb_edt.bmp	2	6	2.047009	3885.132350
025	1	1	12	12	other_00698_941121_fb_edt.bmp	2	7	1.497358	3887.298214
025	1	1	13	13	white_mw085.bmp	0	5	3.352931	3888.914324
025	1	1	14	14	other_00656_941121_fb_edt.bmp	2	3	2.455466	3892.379775
025	1	1	15	15	white_mw053.bmp	0	6	2.097556	3894.945519
025	1	1	16	16	other_00621_941121_fa_edt.bmp	2	7	2.449530	3897.161417
025	1	1	17	17	white_mw035.bmp	0	5	1.659846	3899.727153
025	1	1	18	18	other_00640_941031_fa_edt_rot.bmp	2	4	5.277045	3901.509855
025	1	1	19	19	white_mw040.bmp	0	3	2.158886	3906.907934
025	1	1	20	20	white_mw070.bmp	0	3	1.060297	3909.190502
025	1	1	21	21	other_00763_941201_fb_edt.bmp	2	4	1.877385	3910.373404
025	1	1	22	22	white_mw066.bmp	0	6	1.597953	3912.372698
025	1	1	23	23	white_mw091.bmp	0	7	2.673830	3914.088754
025	1	1	24	24	black_mb097.bmp	1	2	3.898761	3916.887763
025	1	1	25	25	other_00668_941121_fa_edt.bmp	2	4	2.538776	3920.919653
025	1	1	26	26	black_mb100.bmp	1	2	2.409667	3923.568711
025	1	1	27	27	other_00629_940928_fa_edt.bmp	2	9	2.981084	3926.101156
025	1	1	28	28	white_mw056.bmp	0	4	9.058126	3929.200059
025	1	1	29	29	white_mw060.bmp	0	1	2.758153	3938.380134
025	1	1	30	30	other_00976_960627_fb_edt.bmp	2	7	1.964125	3941.245805
025	1	1	31	31	white_mw038.bmp	0	3	4.529443	3943.328382
025	1	1	32	32	white_mw034.bmp	0	8	2.785027	3947.976756
025	1	1	33	33	black_mb049.bmp	1	5	3.109976	3950.875731
025	1	1	34	34	black_mb067.bmp	1	5	2.077865	3954.107921
025	1	1	35	35	white_mw029.bmp	0	3	2.446449	3956.307120
025	1	1	36	36	white_mw073.bmp	0	2	10.104420	3958.872877
025	1	1	37	37	white_mw082.bmp	0	4	6.251733	3969.085935
025	1	1	38	38	white_mw071.bmp	0	1	2.078732	3975.450341
025	1	1	39	39	other_00712_941205_fa_edt.bmp	2	4	2.919455	3977.649566
025	1	1	40	40	other_00795_941205_fb_edt.bmp	2	8	9.902890	3980.681819
025	1	1	41	41	black_mb068.bmp	1	3	1.961715	3990.694945
025	1	1	42	42	other_00726_941201_fb_edt.bmp	2	3	2.975109	3992.777530
025	1	1	43	43	other_00724_941201_fa_edt.bmp	2	4	21.636363	3995.859785
025	1	1	44	44	black_mb099.bmp	1	2	1.525302	4017.618755
025	1	1	45	45	white_mw084.bmp	0	4	2.836412	4019.251510
025	1	1	46	46	black_mb042.bmp	1	5	2.687375	4022.200464
025	1	1	47	47	white_mw098.bmp	0	2	1.504454	4024.999459
025	1	1	48	48	black_mb063.bmp	1	4	4.120160	4026.615568
025	1	1	49	49	black_mb089.bmp	1	7	3.152296	4030.847398
025	1	1	50	50	white_mw049.bmp	0	3	3.126667	4034.112893
025	1	1	51	51	black_mb083.bmp	1	3	1.518075	4037.361755
025	1	1	52	52	other_00912_960530_fa_edt.bmp	2	1	1.316997	4038.994531
025	1	1	53	53	other_00828_940307_fa_edt.bmp	2	1	1.012081	4040.427358
025	1	1	54	54	white_mw067.bmp	0	1	1.295161	4041.560291
025	1	1	55	55	white_mw044.bmp	0	7	2.798946	4042.976453
025	1	1	56	56	black_mb046.bmp	1	6	8.883066	4045.892097
025	1	1	57	57	other_00672_941121_fa_edt.bmp	2	7	4.230158	4054.888883
025	1	1	58	58	white_mw072.bmp	0	1	2.625849	4059.237367
025	1	1	59	59	black_mb061.bmp	1	2	1.829248	4061.969691
025	1	1	60	60	black_mb039.bmp	1	3	3.855798	4063.919018
025	1	1	61	61	black_mb045.bmp	1	4	2.074460	4067.884283
025	1	1	62	62	other_00866_940307_fa_edt.bmp	2	3	3.443806	4070.066829
025	1	1	63	63	black_mb060.bmp	1	6	2.862341	4073.632266
025	1	1	64	64	other_01207_940128_fb_edt.bmp	2	7	2.344014	4076.614525
025	1	1	65	65	black_mb079.bmp	1	4	2.142070	4079.080312
025	1	1	66	66	white_mw092.bmp	0	4	5.492879	4081.329521
025	1	1	67	67	black_mb054.bmp	1	4	1.550042	4086.944227
025	1	1	68	68	white_mw074.bmp	0	4	2.371909	4088.610292
025	1	1	69	69	other_00810_941205_fb_edt_rot.bmp	2	3	4.713397	4091.092741
025	1	2	01	70	black_mb096.bmp	1	3	4.617907	4101.955953
025	1	2	02	71	other_00933_960627_fa_edt.bmp	2	8	2.670569	4106.687214
025	1	2	03	72	white_mw043.bmp	0	2	2.248176	4109.469577
025	1	2	04	73	black_mb056.bmp	1	4	1.754278	4111.835371
025	1	2	05	74	white_mw065.bmp	0	4	2.160180	4113.701379
025	1	2	06	75	black_mb098.bmp	1	4	1.517747	4115.983927
025	1	2	07	76	black_mb073.bmp	1	6	1.844869	4117.616674
025	1	2	08	77	black_mb075.bmp	1	2	1.638823	4119.582662
025	1	2	09	78	black_mb050.bmp	1	3	32.056622	4121.332042
025	1	2	10	79	white_mw099.bmp	0	2	2.260617	4153.503971
025	1	2	11	80	black_mb057.bmp	1	3	1.350136	4155.886458
025	1	2	12	81	black_mb051.bmp	1	2	1.795968	4157.352594
025	1	2	13	82	black_mb077.bmp	1	2	3.271838	4159.268622
025	1	2	14	83	white_mw057.bmp	0	2	6.353533	4162.650717
025	1	2	15	84	white_mw080.bmp	0	2	1.736501	4169.131771
025	1	2	16	85	white_mw058.bmp	0	2	1.613796	4171.014439
025	1	2	17	86	black_mb055.bmp	1	4	2.032275	4172.763839
025	1	2	18	87	white_mw095.bmp	0	3	1.905076	4174.963054
025	1	2	19	88	other_00911_960530_fa_edt.bmp	2	5	4.952907	4176.979012
025	1	2	20	89	white_mw054.bmp	0	5	1.863351	4182.060508
025	1	2	21	90	white_mw042.bmp	0	4	1.312740	4184.043154
025	1	2	22	91	other_00797_941205_fb_edt.bmp	2	4	1.663231	4185.492627
025	1	2	23	92	white_mw052.bmp	0	7	2.255795	4187.292005
025	1	2	24	93	black_mb082.bmp	1	7	21.360046	4189.691157
025	1	2	25	94	black_mb040.bmp	1	4	2.483627	4211.183560
025	1	2	26	95	black_mb062.bmp	1	3	1.467868	4213.799310
025	1	2	27	96	black_mb059.bmp	1	3	1.844322	4215.398739
025	1	2	28	97	other_00869_940307_fa_edt.bmp	2	3	1.798330	4217.364702
025	1	2	29	98	black_mb093.bmp	1	4	2.865640	4219.297342
025	1	2	30	99	other_00666_941121_fa_edt_rot.bmp	2	4	2.001940	4222.312939
025	1	2	31	100	white_mw076.bmp	0	2	3.494098	4224.428844
025	1	2	32	101	other_00673_941121_fa_edt_rot.bmp	2	5	1.686501	4228.044268
025	1	2	33	102	black_mb069.bmp	1	4	3.919035	4229.843629
025	1	2	34	103	white_mw033.bmp	0	6	2.359055	4233.875536
025	1	2	35	104	white_mw041.bmp	0	6	6.053132	4236.341306
025	1	2	36	105	black_mb064.bmp	1	7	2.664535	4242.505792
025	1	2	37	106	white_mw048.bmp	0	2	2.722156	4245.288148
025	1	2	38	107	other_00859_940307_fa_edt.bmp	2	7	9.793621	4248.120484
025	1	2	39	108	white_mw089.bmp	0	6	1.656426	4258.033630
025	1	2	40	109	black_mb044.bmp	1	6	1.618346	4259.799667
025	1	2	41	110	other_00625_940928_fb_edt.bmp	2	8	2.157495	4261.532388
025	1	2	42	111	black_mb058.bmp	1	4	1.467579	4263.798260
025	1	2	43	112	white_mw046.bmp	0	2	2.612811	4265.381034
025	1	2	44	113	white_mw097.bmp	0	2	2.280328	4268.113410
025	1	2	45	114	white_mw047.bmp	0	2	1.993292	4270.512564
025	1	2	46	115	other_00740_941205_fa_edt.bmp	2	6	3.221200	4272.628475
025	1	2	47	116	white_mw078.bmp	0	5	2.160973	4275.960612
025	1	2	48	117	white_mw096.bmp	0	3	2.086368	4278.243138
025	1	2	49	118	black_mb092.bmp	1	2	1.847076	4280.442361
025	1	2	50	119	other_00737_941201_fa_edt.bmp	2	4	19.896653	4282.408355
025	1	2	51	120	other_00793_941205_fb_edt.bmp	2	4	5.734885	4302.417932
025	1	2	52	121	black_mb078.bmp	1	6	1.606886	4308.265842
025	1	2	53	122	white_mw077.bmp	0	6	1.282770	4309.981900
025	1	2	54	123	black_mb085.bmp	1	5	1.763306	4311.381393
025	1	2	55	124	black_mb072.bmp	1	3	1.656595	4313.264073
025	1	2	56	125	other_00809_941205_fa_edt.bmp	2	8	1.474495	4315.030135
025	1	2	57	126	other_00926_960627_fa_edt.bmp	2	4	2.235624	4316.612904
025	1	2	58	127	black_mb065.bmp	1	5	1.526387	4318.962077
025	1	2	59	128	black_mb088.bmp	1	2	1.797673	4320.594812
025	1	2	60	129	other_00710_960530_fa_edt.bmp	2	8	1.633656	4322.510809
025	1	2	61	130	other_00880_960530_fa_edt.bmp	2	7	2.716127	4324.260179
025	1	2	62	131	other_00734_941201_fa_edt.bmp	2	6	2.075769	4327.092511
025	1	2	63	132	white_mw075.bmp	0	5	1.573187	4329.275056
025	1	2	64	133	white_mw051.bmp	0	2	1.650346	4330.957807
025	1	2	65	134	black_mb066.bmp	1	4	1.412315	4332.723867
025	1	2	66	135	white_mw063.bmp	0	3	4.063376	4334.256662
025	1	2	67	136	black_mb047.bmp	1	3	1.809440	4338.438502
025	1	2	68	137	black_mb094.bmp	1	2	0.925494	4340.354464
025	1	2	69	138	black_mb070.bmp	1	4	1.596528	4341.387434
