SUBJECT ID	CONDITION	BLOCK	TRIAL NUM	CUMULATIVE TRIAL NUM	STIM	PARTNER RACE	RESPONSE	RT	START TIME
025	2	1	01	01	other_00737_941201_fa_edt.bmp	2	7	7.321228	8478.166985
025	2	1	02	02	white_mw038.bmp	0	2	4.931055	8485.597355
025	2	1	03	03	black_mb082.bmp	1	5	7.442733	8490.645649
025	2	1	04	04	black_mb038.bmp	1	3	3.710458	8498.209771
025	2	1	05	05	other_00866_940307_fa_edt.bmp	2	1	3.062053	8502.041881
025	2	1	06	06	black_mb078.bmp	1	2	6.680070	8505.224021
025	2	1	07	07	white_mw043.bmp	0	2	3.442178	8512.021735
025	2	1	08	08	black_mb060.bmp	1	4	4.764384	8515.587193
025	2	1	09	09	black_mb071.bmp	1	4	3.474728	8520.468876
025	2	1	10	10	black_mb069.bmp	1	4	1.812983	8524.051007
025	2	1	11	11	white_mw040.bmp	0	6	6.528321	8525.983675
025	2	1	12	12	black_mb070.bmp	1	6	2.672444	8532.631429
025	2	1	13	13	black_mb039.bmp	1	4	2.521927	8535.413807
025	2	1	14	14	black_mb079.bmp	1	6	4.665633	8538.046263
025	2	1	15	15	other_00629_940928_fa_edt.bmp	2	9	2.355351	8542.827990
025	2	1	16	16	black_mb055.bmp	1	7	9.977910	8545.293799
025	2	1	17	17	white_mw044.bmp	0	9	3.177501	8555.390381
025	2	1	18	18	black_mb040.bmp	1	7	4.198384	8558.689282
025	2	1	19	19	other_00880_960530_fa_edt.bmp	2	8	8.322621	8563.004489
025	2	1	20	20	white_mw096.bmp	0	6	13.828551	8571.434979
025	2	1	21	21	other_00976_960627_fb_edt.bmp	2	9	5.555225	8585.380247
025	2	1	22	22	black_mb062.bmp	1	6	2.874472	8591.044986
025	2	1	23	23	white_mw073.bmp	0	6	2.308115	8594.027324
025	2	1	24	24	black_mb056.bmp	1	6	1.355609	8596.443159
025	2	1	25	25	other_00712_941205_fa_edt.bmp	2	6	6.873983	8597.909329
025	2	1	26	26	black_mb083.bmp	1	5	3.364487	8604.890313
025	2	1	27	27	black_mb077.bmp	1	4	10.306219	8608.372477
025	2	1	28	28	white_mw076.bmp	0	5	2.901073	8618.785612
025	2	1	29	29	white_mw060.bmp	0	2	2.117732	8621.801272
025	2	1	30	30	black_mb059.bmp	1	4	2.005255	8624.033838
025	2	1	31	31	black_mb089.bmp	1	5	1.553399	8626.149788
025	2	1	32	32	white_mw067.bmp	0	3	1.494721	8627.815891
025	2	1	33	33	white_mw074.bmp	0	3	1.343080	8629.432012
025	2	1	34	34	other_00859_940307_fa_edt.bmp	2	7	2.693410	8630.881502
025	2	1	35	35	other_00912_960530_fa_edt.bmp	2	7	4.901626	8633.697234
025	2	1	36	36	white_mw065.bmp	0	2	3.414628	8638.712196
025	2	1	37	37	other_00625_940928_fb_edt.bmp	2	6	2.714656	8642.244342
025	2	1	38	38	white_mw054.bmp	0	4	5.809661	8645.076721
025	2	1	39	39	white_mw063.bmp	0	1	6.630790	8651.008047
025	2	1	40	40	black_mb045.bmp	1	3	1.754879	8657.755764
025	2	1	41	41	white_mw078.bmp	0	4	2.496832	8659.621799
025	2	1	42	42	black_mb050.bmp	1	4	2.456685	8662.237585
025	2	1	43	43	black_mb081.bmp	1	6	1.642831	8664.803368
025	2	1	44	44	white_mw048.bmp	0	1	1.589868	8666.552775
025	2	1	45	45	other_00911_960530_fa_edt.bmp	2	7	6.385981	8668.252213
025	2	1	46	46	other_00710_960530_fa_edt.bmp	2	9	1.464642	8674.750003
025	2	1	47	47	white_mw071.bmp	0	4	4.265285	8676.332814
025	2	1	48	48	other_00828_940307_fa_edt.bmp	2	2	1.915929	8680.714665
025	2	1	49	49	white_mw033.bmp	0	7	2.299257	8682.747297
025	2	1	50	50	black_mb065.bmp	1	1	2.202887	8685.163158
025	2	1	51	51	other_00841_940307_fb_edt.bmp	2	3	2.862932	8687.479041
025	2	1	52	52	other_00763_941201_fb_edt.bmp	2	4	2.945138	8690.461377
025	2	1	53	53	white_mw085.bmp	0	3	2.143359	8693.526993
025	2	1	54	54	black_mb057.bmp	1	4	2.437085	8695.792884
025	2	1	55	55	black_mb066.bmp	1	5	6.495884	8698.342020
025	2	1	56	56	white_mw047.bmp	0	4	2.073797	8704.956448
025	2	1	57	57	black_mb051.bmp	1	3	1.770978	8707.139053
025	2	1	58	58	black_mb058.bmp	1	2	1.528601	8709.021754
025	2	1	59	59	other_00926_960627_fa_edt.bmp	2	2	2.078927	8710.671195
025	2	1	60	60	other_00698_941121_fb_edt.bmp	2	6	5.471327	8712.870451
025	2	1	61	61	other_00724_941201_fa_edt.bmp	2	6	2.753825	8718.451881
025	2	1	62	62	black_mb044.bmp	1	6	4.112112	8721.317592
025	2	1	63	63	white_mw049.bmp	0	8	2.208695	8725.549494
025	2	1	64	64	black_mb047.bmp	1	4	2.772277	8727.865366
025	2	1	65	65	white_mw029.bmp	0	7	3.034433	8730.747735
025	2	1	66	66	white_mw070.bmp	0	3	5.268931	8733.896653
025	2	1	67	67	white_mw042.bmp	0	3	2.487841	8739.278183
025	2	1	68	68	other_00810_941205_fb_edt_rot.bmp	2	3	1.208593	8741.877305
025	2	1	69	69	black_mb075.bmp	1	3	1.172513	8743.193525
025	2	2	01	70	black_mb085.bmp	1	3	3.641820	8750.508100
025	2	2	02	71	black_mb061.bmp	1	2	2.548248	8754.273165
025	2	2	03	72	black_mb067.bmp	1	3	1.443065	8756.938862
025	2	2	04	73	other_00652_941031_fb_edt.bmp	2	6	1.868720	8758.505006
025	2	2	05	74	white_mw092.bmp	0	5	4.629879	8760.487674
025	2	2	06	75	other_00740_941205_fa_edt.bmp	2	6	5.681724	8765.236058
025	2	2	07	76	white_mw077.bmp	0	4	1.579648	8771.034096
025	2	2	08	77	white_mw041.bmp	0	3	1.856282	8772.733515
025	2	2	09	78	white_mw051.bmp	0	4	1.818030	8774.699516
025	2	2	10	79	white_mw046.bmp	0	2	5.236907	8776.632210
025	2	2	11	80	white_mw066.bmp	0	3	2.009244	8781.980386
025	2	2	12	81	white_mw052.bmp	0	4	3.461299	8784.096335
025	2	2	13	82	black_mb073.bmp	1	6	1.831020	8787.678451
025	2	2	14	83	black_mb096.bmp	1	1	2.705255	8789.627791
025	2	2	15	84	white_mw080.bmp	0	6	5.169477	8792.443515
025	2	2	16	85	other_00795_941205_fb_edt.bmp	2	8	1.935949	8797.725075
025	2	2	17	86	other_00869_940307_fa_edt.bmp	2	4	3.710730	8799.774358
025	2	2	18	87	other_00668_941121_fa_edt.bmp	2	3	15.558659	8803.606420
025	2	2	19	88	white_mw098.bmp	0	1	1.280204	8819.284494
025	2	2	20	89	black_mb046.bmp	1	2	2.081137	8820.683971
025	2	2	21	90	other_00933_960627_fa_edt.bmp	2	7	2.306077	8822.883228
025	2	2	22	91	other_00809_941205_fa_edt.bmp	2	7	1.242219	8825.299064
025	2	2	23	92	white_mw097.bmp	0	2	2.452064	8826.648621
025	2	2	24	93	other_00656_941121_fb_edt.bmp	2	6	3.534329	8829.214421
025	2	2	25	94	other_00793_941205_fb_edt.bmp	2	6	4.141772	8832.863163
025	2	2	26	95	black_mb097.bmp	1	3	1.957357	8837.111723
025	2	2	27	96	black_mb042.bmp	1	4	1.371298	8839.177677
025	2	2	28	97	other_00640_941031_fa_edt_rot.bmp	2	2	1.704061	8840.660547
025	2	2	29	98	white_mw056.bmp	0	4	2.208488	8842.476604
025	2	2	30	99	other_00733_941201_fa_edt.bmp	2	6	1.804122	8844.792482
025	2	2	31	100	other_00621_941121_fa_edt.bmp	2	7	3.815982	8846.708495
025	2	2	32	101	white_mw068.bmp	0	2	1.964500	8850.640491
025	2	2	33	102	black_mb068.bmp	1	2	9.361766	8852.723140
025	2	2	34	103	white_mw072.bmp	0	1	2.553409	8862.203235
025	2	2	35	104	black_mb088.bmp	1	1	1.167794	8864.868999
025	2	2	36	105	other_00726_941201_fb_edt.bmp	2	3	2.708401	8866.151905
025	2	2	37	106	other_00797_941205_fb_edt.bmp	2	3	6.340702	8868.967636
025	2	2	38	107	other_00672_941121_fa_edt.bmp	2	3	1.317263	8875.415416
025	2	2	39	108	white_mw034.bmp	0	8	2.475904	8876.848269
025	2	2	40	109	white_mw053.bmp	0	5	15.597972	8879.430741
025	2	2	41	110	white_mw084.bmp	0	4	9.597928	8895.142095
025	2	2	42	111	white_mw057.bmp	0	4	1.740830	8904.855477
025	2	2	43	112	white_mw039.bmp	0	3	2.819114	8906.704841
025	2	2	44	113	white_mw099.bmp	0	2	1.110859	8909.637182
025	2	2	45	114	black_mb063.bmp	1	4	1.845793	8910.870099
025	2	2	46	115	black_mb054.bmp	1	4	1.239747	8912.836090
025	2	2	47	116	other_00622_940928_fb_edt.bmp	2	5	4.506744	8914.185650
025	2	2	48	117	other_00734_941201_fa_edt.bmp	2	7	2.163097	8918.800776
025	2	2	49	118	white_mw095.bmp	0	1	3.688953	8921.083340
025	2	2	50	119	white_mw089.bmp	0	2	2.913794	8924.882051
025	2	2	51	120	other_00673_941121_fa_edt_rot.bmp	2	6	1.769389	8927.914364
025	2	2	52	121	black_mb099.bmp	1	4	2.062701	8929.797086
025	2	2	53	122	other_00623_940928_fb_edt.bmp	2	5	4.984472	8931.979632
025	2	2	54	123	black_mb072.bmp	1	1	1.918290	8937.077904
025	2	2	55	124	black_mb064.bmp	1	1	2.540974	8939.110574
025	2	2	56	125	other_00666_941121_fa_edt_rot.bmp	2	4	1.420505	8941.759675
025	2	2	57	126	white_mw035.bmp	0	3	4.159648	8943.292469
025	2	2	58	127	black_mb049.bmp	1	4	1.541278	8947.574353
025	2	2	59	128	black_mb092.bmp	1	2	2.059748	8949.223782
025	2	2	60	129	white_mw082.bmp	0	6	1.718346	8951.389759
025	2	2	61	130	white_mw058.bmp	0	4	1.949571	8953.222442
025	2	2	62	131	other_01207_940128_fb_edt.bmp	2	5	2.923618	8955.288432
025	2	2	63	132	white_mw091.bmp	0	4	3.362761	8958.320739
025	2	2	64	133	black_mb098.bmp	1	3	3.697100	8961.802898
025	2	2	65	134	black_mb100.bmp	1	2	1.785350	8965.618249
025	2	2	66	135	black_mb094.bmp	1	4	2.053990	8967.517595
025	2	2	67	136	other_00921_960627_fb_edt.bmp	2	6	5.103841	8969.683540
025	2	2	68	137	black_mb093.bmp	1	3	4.784876	8974.898464
025	2	2	69	138	white_mw075.bmp	0	6	2.526463	8979.796808
