SUBJECT ID	CONDITION	BLOCK	TRIAL NUM	CUMULATIVE TRIAL NUM	STIM	PARTNER RACE	RESPONSE	RT	START TIME
021	2	1	01	01	white_mw034.bmp	0	6	3.485846	14112.784321
021	2	1	02	02	black_mb073.bmp	1	6	1.319845	14116.382180
021	2	1	03	03	other_00795_941205_fb_edt.bmp	2	5	1.246981	14117.814987
021	2	1	04	04	other_00652_941031_fb_edt.bmp	2	5	2.264732	14119.181181
021	2	1	05	05	other_00933_960627_fa_edt.bmp	2	7	1.794223	14121.563684
021	2	1	06	06	black_mb100.bmp	1	4	2.502212	14123.479689
021	2	1	07	07	black_mb067.bmp	1	6	1.670443	14126.095441
021	2	1	08	08	other_00623_940928_fb_edt.bmp	2	5	1.279632	14127.878141
021	2	1	09	09	white_mw029.bmp	0	2	2.304065	14129.277667
021	2	1	10	10	black_mb061.bmp	1	5	1.416288	14131.693496
021	2	1	11	11	black_mb046.bmp	1	6	1.419442	14133.226286
021	2	1	12	12	other_00726_941201_fb_edt.bmp	2	6	1.742522	14134.759098
021	2	1	13	13	white_mw033.bmp	0	6	1.869173	14136.608440
021	2	1	14	14	other_00809_941205_fa_edt.bmp	2	5	1.030535	14138.591098
021	2	1	15	15	white_mw072.bmp	0	2	2.024814	14139.740688
021	2	1	16	16	other_00698_941121_fb_edt.bmp	2	7	2.052321	14141.873290
021	2	1	17	17	other_00921_960627_fb_edt.bmp	2	6	2.366256	14144.039204
021	2	1	18	18	black_mb039.bmp	1	4	1.435741	14146.521680
021	2	1	19	19	black_mb071.bmp	1	4	1.286288	14148.071138
021	2	1	20	20	black_mb094.bmp	1	4	2.462631	14149.470652
021	2	1	21	21	white_mw084.bmp	0	4	1.936175	14152.053072
021	2	1	22	22	white_mw099.bmp	0	6	1.462952	14154.102376
021	2	1	23	23	other_00763_941201_fb_edt.bmp	2	6	2.472111	14155.685146
021	2	1	24	24	white_mw035.bmp	0	5	1.529683	14158.267593
021	2	1	25	25	other_00734_941201_fa_edt.bmp	2	5	2.024077	14159.917021
021	2	1	26	26	other_00666_941121_fa_edt_rot.bmp	2	5	1.403514	14162.049614
021	2	1	27	27	white_mw048.bmp	0	1	1.999384	14163.565751
021	2	1	28	28	white_mw074.bmp	0	5	1.555498	14165.681668
021	2	1	29	29	white_mw038.bmp	0	5	1.665283	14167.347757
021	2	1	30	30	white_mw060.bmp	0	6	0.970525	14169.130485
021	2	1	31	31	white_mw053.bmp	0	5	1.023539	14170.213439
021	2	1	32	32	black_mb068.bmp	1	5	0.970647	14171.346379
021	2	1	33	33	black_mb060.bmp	1	5	1.015637	14172.429335
021	2	1	34	34	black_mb042.bmp	1	6	0.922565	14173.562277
021	2	1	35	35	white_mw039.bmp	0	5	0.881698	14174.595249
021	2	1	36	36	white_mw066.bmp	0	5	0.890038	14175.594892
021	2	1	37	37	other_00976_960627_fb_edt.bmp	2	4	0.866337	14176.594554
021	2	1	38	38	white_mw075.bmp	0	5	0.883243	14177.577546
021	2	1	39	39	other_00926_960627_fa_edt.bmp	2	5	2.307648	14178.577187
021	2	1	40	40	black_mb088.bmp	1	5	1.403885	14180.993026
021	2	1	41	41	black_mb093.bmp	1	6	1.927618	14182.509152
021	2	1	42	42	other_00621_941121_fa_edt.bmp	2	6	1.750155	14184.558466
021	2	1	43	43	black_mb045.bmp	1	5	1.188250	14186.424458
021	2	1	44	44	black_mb044.bmp	1	6	1.088645	14187.724020
021	2	1	45	45	other_00912_960530_fa_edt.bmp	2	5	0.937054	14188.923589
021	2	1	46	46	other_00668_941121_fa_edt.bmp	2	6	1.023407	14189.973238
021	2	1	47	47	other_00673_941121_fa_edt_rot.bmp	2	7	1.674447	14191.106181
021	2	1	48	48	other_00859_940307_fa_edt.bmp	2	7	1.211645	14192.888890
021	2	1	49	49	white_mw058.bmp	0	6	0.982790	14194.221750
021	2	1	50	50	other_00810_941205_fb_edt_rot.bmp	2	5	1.051222	14195.321379
021	2	1	51	51	white_mw056.bmp	0	5	0.884883	14196.487644
021	2	1	52	52	black_mb092.bmp	1	6	1.021097	14197.487290
021	2	1	53	53	other_00797_941205_fb_edt.bmp	2	5	1.080223	14198.620230
021	2	1	54	54	white_mw046.bmp	0	4	0.960659	14199.819803
021	2	1	55	55	other_00724_941201_fa_edt.bmp	2	4	2.493636	14200.902772
021	2	1	56	56	white_mw040.bmp	0	4	1.357734	14203.518530
021	2	1	57	57	white_mw096.bmp	0	3	1.187761	14204.984686
021	2	1	58	58	white_mw071.bmp	0	7	1.680080	14206.284220
021	2	1	59	59	black_mb050.bmp	1	6	1.328575	14208.083609
021	2	1	60	60	black_mb051.bmp	1	3	1.663065	14209.533103
021	2	1	61	61	other_00672_941121_fa_edt.bmp	2	7	1.519754	14211.332466
021	2	1	62	62	other_00841_940307_fb_edt.bmp	2	6	1.143002	14212.965249
021	2	1	63	63	other_00880_960530_fa_edt.bmp	2	5	1.333348	14214.214811
021	2	1	64	64	black_mb089.bmp	1	7	1.987823	14215.664306
021	2	1	65	65	white_mw095.bmp	0	3	1.840608	14217.763563
021	2	1	66	66	white_mw057.bmp	0	5	1.851146	14219.712887
021	2	1	67	67	white_mw089.bmp	0	7	1.621150	14221.678891
021	2	1	68	68	white_mw082.bmp	0	6	1.248361	14223.411619
021	2	1	69	69	other_00622_940928_fb_edt.bmp	2	6	2.610057	14224.777791
021	2	2	01	70	white_mw085.bmp	0	4	2.326173	14233.541633
021	2	2	02	71	other_00712_941205_fa_edt.bmp	2	6	1.429166	14235.990570
021	2	2	03	72	other_00911_960530_fa_edt.bmp	2	6	0.943703	14237.540032
021	2	2	04	73	black_mb062.bmp	1	5	0.805420	14238.606324
021	2	2	05	74	other_00793_941205_fb_edt.bmp	2	6	1.480916	14239.522680
021	2	2	06	75	black_mb055.bmp	1	5	1.681433	14241.122126
021	2	2	07	76	black_mb096.bmp	1	6	1.482116	14242.921489
021	2	2	08	77	white_mw047.bmp	0	5	3.106657	14244.520940
021	2	2	09	78	black_mb069.bmp	1	5	2.787019	14247.736488
021	2	2	10	79	other_00625_940928_fb_edt.bmp	2	4	2.159999	14250.635478
021	2	2	11	80	black_mb097.bmp	1	3	2.397431	14252.918008
021	2	2	12	81	black_mb065.bmp	1	4	2.297612	14255.433813
021	2	2	13	82	white_mw092.bmp	0	5	4.705553	14257.849641
021	2	2	14	83	black_mb047.bmp	1	6	2.082629	14262.664633
021	2	2	15	84	black_mb059.bmp	1	4	1.515384	14264.863870
021	2	2	16	85	other_01207_940128_fb_edt.bmp	2	3	1.562449	14266.496639
021	2	2	17	86	white_mw077.bmp	0	5	2.127783	14268.179369
021	2	2	18	87	black_mb066.bmp	1	5	0.918562	14270.428589
021	2	2	19	88	other_00737_941201_fa_edt.bmp	2	6	1.565540	14271.461564
021	2	2	20	89	black_mb099.bmp	1	5	1.562689	14273.144324
021	2	2	21	90	black_mb058.bmp	1	6	1.879974	14274.827071
021	2	2	22	91	black_mb057.bmp	1	4	1.544588	14276.826377
021	2	2	23	92	white_mw051.bmp	0	7	1.206579	14278.492464
021	2	2	24	93	white_mw065.bmp	0	6	1.442290	14279.808673
021	2	2	25	94	black_mb056.bmp	1	6	1.516793	14281.358146
021	2	2	26	95	white_mw078.bmp	0	6	1.172090	14282.990900
021	2	2	27	96	black_mb098.bmp	1	5	0.649079	14284.273790
021	2	2	28	97	black_mb082.bmp	1	6	0.554712	14285.040178
021	2	2	29	98	black_mb040.bmp	1	4	0.992245	14285.706624
021	2	2	30	99	black_mb081.bmp	1	5	1.100617	14286.806228
021	2	2	31	100	white_mw044.bmp	0	6	0.932296	14288.022486
021	2	2	32	101	white_mw067.bmp	0	7	1.074702	14289.072120
021	2	2	33	102	black_mb085.bmp	1	4	1.251769	14290.255043
021	2	2	34	103	white_mw080.bmp	0	5	1.269533	14291.621238
021	2	2	35	104	white_mw052.bmp	0	6	1.094516	14293.004086
021	2	2	36	105	other_00656_941121_fb_edt.bmp	2	6	1.686349	14294.220330
021	2	2	37	106	white_mw043.bmp	0	6	1.054929	14296.019712
021	2	2	38	107	white_mw049.bmp	0	5	0.816574	14297.185967
021	2	2	39	108	white_mw063.bmp	0	5	1.155575	14298.118975
021	2	2	40	109	black_mb079.bmp	1	6	2.393387	14299.385201
021	2	2	41	110	white_mw073.bmp	0	5	3.133428	14301.900995
021	2	2	42	111	other_00710_960530_fa_edt.bmp	2	6	2.276627	14305.149852
021	2	2	43	112	black_mb064.bmp	1	6	1.653422	14307.549019
021	2	2	44	113	white_mw076.bmp	0	2	1.735243	14309.315075
021	2	2	45	114	other_00740_941205_fa_edt.bmp	2	3	2.333974	14311.164441
021	2	2	46	115	white_mw097.bmp	0	3	1.812715	14313.613590
021	2	2	47	116	other_00733_941201_fa_edt.bmp	2	4	2.664107	14315.546239
021	2	2	48	117	white_mw041.bmp	0	3	1.841659	14318.328618
021	2	2	49	118	white_mw091.bmp	0	4	1.676254	14320.277953
021	2	2	50	119	other_00866_940307_fa_edt.bmp	2	3	1.501515	14322.060638
021	2	2	51	120	black_mb063.bmp	1	3	1.285400	14323.676756
021	2	2	52	121	black_mb038.bmp	1	6	1.549830	14325.076271
021	2	2	53	122	black_mb075.bmp	1	3	1.531639	14326.742361
021	2	2	54	123	black_mb077.bmp	1	6	1.602161	14328.391771
021	2	2	55	124	other_00640_941031_fa_edt_rot.bmp	2	5	1.782154	14330.107842
021	2	2	56	125	black_mb072.bmp	1	6	1.546827	14332.007195
021	2	2	57	126	white_mw042.bmp	0	5	1.568659	14333.673282
021	2	2	58	127	black_mb054.bmp	1	6	1.317945	14335.356019
021	2	2	59	128	white_mw054.bmp	0	5	1.252949	14336.788866
021	2	2	60	129	black_mb083.bmp	1	4	0.855289	14338.155046
021	2	2	61	130	black_mb049.bmp	1	6	1.408477	14339.121390
021	2	2	62	131	white_mw068.bmp	0	6	1.308313	14340.637527
021	2	2	63	132	white_mw098.bmp	0	5	0.852018	14342.053703
021	2	2	64	133	white_mw070.bmp	0	4	0.741818	14343.020037
021	2	2	65	134	other_00828_940307_fa_edt.bmp	2	5	0.516045	14343.869736
021	2	2	66	135	other_00629_940928_fa_edt.bmp	2	7	2.122807	14344.502850
021	2	2	67	136	black_mb078.bmp	1	7	1.506300	14346.735396
021	2	2	68	137	black_mb070.bmp	1	6	1.378248	14348.351502
021	2	2	69	138	other_00869_940307_fa_edt.bmp	2	5	1.446640	14349.850998
