SUBJECT ID	CONDITION	BLOCK	TRIAL NUM	CUMULATIVE TRIAL NUM	STIM	INK	MASK	STIM RACE	RESPONSE	RT	START TIME
004	0	80	01	01	black_mb032.bmp	pd_sm_inkblot_170816_1750_071.png	pdPL_noiseMask_170814_1952_079.png	1	1	7.892358	4835.895777
004	0	80	02	02	white_mw028.bmp	pd_sm_inkblot_170816_1750_066.png	pdPL_noiseMask_170814_1952_015.png	0	1	4.961101	4844.242923
004	0	80	03	03	other_00490_940519_fb_edt.bmp	pd_sm_inkblot_170816_1750_092.png	pdPL_noiseMask_170814_1952_094.png	2	1	2.768075	4849.507819
004	0	1	01	01	black_mb030.bmp	pd_sm_inkblot_170816_1750_097.png	pdPL_noiseMask_170814_1952_083.png	1	1	1.995840	4885.495564
004	0	1	02	02	other_00610_940928_fa_edt.bmp	pd_sm_inkblot_170816_1750_031.png	pdPL_noiseMask_170814_1952_087.png	2	1	2.403383	4887.728066
004	0	1	03	03	white_00591_940928_fa_edt.bmp	pd_sm_inkblot_170816_1750_097.png	pdPL_noiseMask_170814_1952_038.png	0	0	1.450797	4890.360516
004	0	1	04	04	other_00029_940128_fa_edt.bmp	pd_sm_inkblot_170816_1750_047.png	pdPL_noiseMask_170814_1952_013.png	2	0	2.112162	4892.043258
004	0	1	05	05	other_00575_940928_fb_edt.bmp	pd_sm_inkblot_170816_1750_006.png	pdPL_noiseMask_170814_1952_080.png	2	0	1.418860	4894.392545
004	0	1	06	06	white_00659_941121_fa_edt.bmp	pd_sm_inkblot_170816_1750_048.png	pdPL_noiseMask_170814_1952_044.png	0	1	1.001477	4896.041897
004	0	1	07	07	black_00716_941201_fa_edt_rot.bmp	pd_sm_inkblot_170816_1750_028.png	pdPL_noiseMask_170814_1952_038.png	1	1	1.680803	4897.274812
004	0	1	08	08	white_00248_940128_fa_edt.bmp	pd_sm_inkblot_170816_1750_021.png	pdPL_noiseMask_170814_1952_004.png	0	0	1.860408	4899.190825
004	0	1	09	09	other_00110_931230_fb_edt.bmp	pd_sm_inkblot_170816_1750_000.png	pdPL_noiseMask_170814_1952_016.png	2	1	2.289798	4901.273429
004	0	1	10	10	white_00129_931230_fb_edt.bmp	pd_sm_inkblot_170816_1750_047.png	pdPL_noiseMask_170814_1952_061.png	0	1	1.317957	4903.789252
004	0	1	11	11	other_00122_931230_fa_edt.bmp	pd_sm_inkblot_170816_1750_059.png	pdPL_noiseMask_170814_1952_043.png	2	1	2.464747	4905.338710
004	0	1	12	12	white_00253_940128_fa_edt.bmp	pd_sm_inkblot_170816_1750_076.png	pdPL_noiseMask_170814_1952_018.png	0	0	1.845281	4908.037786
004	0	1	13	13	white_00120_931230_fa_edt.bmp	pd_sm_inkblot_170816_1750_041.png	pdPL_noiseMask_170814_1952_050.png	0	1	1.466589	4910.120423
004	0	1	14	14	white_00897_960530_fb_edt.bmp	pd_sm_inkblot_170816_1750_059.png	pdPL_noiseMask_170814_1952_040.png	0	1	2.047261	4911.819846
004	0	1	15	15	white_mw003.bmp	pd_sm_inkblot_170816_1750_091.png	pdPL_noiseMask_170814_1952_017.png	0	0	1.140688	4914.102397
004	0	1	16	16	other_00070_941121_fb_edt.bmp	pd_sm_inkblot_170816_1750_003.png	pdPL_noiseMask_170814_1952_098.png	2	0	1.830354	4915.468597
004	0	1	17	17	black_00108_940128_fb_edt.bmp	pd_sm_inkblot_170816_1750_041.png	pdPL_noiseMask_170814_1952_044.png	1	1	1.420494	4917.534558
004	0	1	18	18	other_00237_940128_fb_edt.bmp	pd_sm_inkblot_170816_1750_054.png	pdPL_noiseMask_170814_1952_031.png	2	1	1.347576	4919.183996
004	0	1	19	19	other_00246_940128_fa_edt.bmp	pd_sm_inkblot_170816_1750_011.png	pdPL_noiseMask_170814_1952_059.png	2	1	2.764279	4920.766788
004	0	1	20	20	other_00614_940928_fa_edt.bmp	pd_sm_inkblot_170816_1750_020.png	pdPL_noiseMask_170814_1952_067.png	2	0	1.813148	4923.765761
004	0	1	21	21	black_mb004.bmp	pd_sm_inkblot_170816_1750_082.png	pdPL_noiseMask_170814_1952_061.png	1	1	4.299861	4925.815061
004	0	1	22	22	white_00764_941201_fa_edt.bmp	pd_sm_inkblot_170816_1750_019.png	pdPL_noiseMask_170814_1952_078.png	0	0	2.432104	4930.346833
004	0	1	23	23	black_mb018.bmp	pd_sm_inkblot_170816_1750_062.png	pdPL_noiseMask_170814_1952_058.png	1	1	2.654255	4933.012605
004	0	1	24	24	black_mb031.bmp	pd_sm_inkblot_170816_1750_016.png	pdPL_noiseMask_170814_1952_053.png	1	0	1.787871	4935.894932
004	0	1	25	25	white_mw006.bmp	pd_sm_inkblot_170816_1750_012.png	pdPL_noiseMask_170814_1952_010.png	0	0	2.867813	4937.910933
004	0	1	26	26	black_mb001.bmp	pd_sm_inkblot_170816_1750_051.png	pdPL_noiseMask_170814_1952_077.png	1	0	1.288846	4941.009874
004	0	1	27	27	black_00917_960620_fa_edt.bmp	pd_sm_inkblot_170816_1750_074.png	pdPL_noiseMask_170814_1952_095.png	1	1	1.076622	4942.526025
004	0	1	28	28	black_mb020.bmp	pd_sm_inkblot_170816_1750_053.png	pdPL_noiseMask_170814_1952_057.png	1	0	2.657090	4943.825580
004	0	1	29	29	black_mb010.bmp	pd_sm_inkblot_170816_1750_039.png	pdPL_noiseMask_170814_1952_026.png	1	1	1.582735	4946.707928
004	0	1	30	30	other_00512_940519_fa_edt.bmp	pd_sm_inkblot_170816_1750_053.png	pdPL_noiseMask_170814_1952_081.png	2	0	1.854679	4948.524001
004	0	2	01	31	other_00247_941121_fb_edt.bmp	pd_sm_inkblot_170816_1750_045.png	pdPL_noiseMask_170814_1952_041.png	2	1	3.020663	4956.637855
004	0	2	02	32	other_00617_940928_fb_edt.bmp	pd_sm_inkblot_170816_1750_055.png	pdPL_noiseMask_170814_1952_038.png	2	0	1.515683	4959.886747
004	0	2	03	33	white_00283_940422_fa_edt.bmp	pd_sm_inkblot_170816_1750_087.png	pdPL_noiseMask_170814_1952_048.png	0	0	1.414363	4961.636146
004	0	2	04	34	other_00383_941031_fa_edt_rot.bmp	pd_sm_inkblot_170816_1750_075.png	pdPL_noiseMask_170814_1952_032.png	2	0	0.884850	4963.285600
004	0	2	05	35	other_00261_940128_fb_edt.bmp	pd_sm_inkblot_170816_1750_012.png	pdPL_noiseMask_170814_1952_024.png	2	0	2.321109	4964.401882
004	0	2	06	36	white_00657_941121_fa_edt.bmp	pd_sm_inkblot_170816_1750_061.png	pdPL_noiseMask_170814_1952_075.png	0	1	1.027381	4966.951015
004	0	2	07	37	white_mw015.bmp	pd_sm_inkblot_170816_1750_064.png	pdPL_noiseMask_170814_1952_065.png	0	1	1.489886	4968.200572
004	0	2	08	38	other_00578_940928_fa_edt.bmp	pd_sm_inkblot_170816_1750_038.png	pdPL_noiseMask_170814_1952_093.png	2	0	1.517711	4969.916652
004	0	2	09	39	black_00453_940422_fb_edt.bmp	pd_sm_inkblot_170816_1750_027.png	pdPL_noiseMask_170814_1952_035.png	1	1	1.472322	4971.666068
004	0	2	10	40	other_00132_931230_fb_edt.bmp	pd_sm_inkblot_170816_1750_062.png	pdPL_noiseMask_170814_1952_018.png	2	0	2.548905	4973.365491
004	0	2	11	41	white_mw002.bmp	pd_sm_inkblot_170816_1750_075.png	pdPL_noiseMask_170814_1952_016.png	0	0	1.558633	4976.147858
004	0	2	12	42	black_mb006.bmp	pd_sm_inkblot_170816_1750_044.png	pdPL_noiseMask_170814_1952_086.png	1	1	2.127638	4977.930599
004	0	2	13	43	white_00874_940307_fa_edt.bmp	pd_sm_inkblot_170816_1750_032.png	pdPL_noiseMask_170814_1952_024.png	0	0	1.242408	4980.279813
004	0	2	14	44	black_mb026.bmp	pd_sm_inkblot_170816_1750_068.png	pdPL_noiseMask_170814_1952_050.png	1	0	1.200622	4981.745948
004	0	2	15	45	other_00205_940128_fa_edt.bmp	pd_sm_inkblot_170816_1750_028.png	pdPL_noiseMask_170814_1952_078.png	2	1	1.367505	4983.178806
004	0	2	16	46	white_00785_941205_fb_edt.bmp	pd_sm_inkblot_170816_1750_031.png	pdPL_noiseMask_170814_1952_031.png	0	0	1.815947	4984.778243
004	0	2	17	47	black_00857_940307_fa_edt.bmp	pd_sm_inkblot_170816_1750_006.png	pdPL_noiseMask_170814_1952_078.png	1	1	1.526595	4986.827558
004	0	2	18	48	white_00597_940928_fb_edt.bmp	pd_sm_inkblot_170816_1750_002.png	pdPL_noiseMask_170814_1952_085.png	0	0	0.897247	4988.576961
004	0	2	19	49	white_00658_941121_fb_edt.bmp	pd_sm_inkblot_170816_1750_089.png	pdPL_noiseMask_170814_1952_001.png	0	0	1.372096	4989.709910
004	0	2	20	50	white_mw008.bmp	pd_sm_inkblot_170816_1750_033.png	pdPL_noiseMask_170814_1952_002.png	0	0	2.180753	4991.309364
004	0	2	21	51	other_00119_931230_fb_edt.bmp	pd_sm_inkblot_170816_1750_039.png	pdPL_noiseMask_170814_1952_040.png	2	0	1.300839	4993.725201
004	0	2	22	52	black_mb033.bmp	pd_sm_inkblot_170816_1750_064.png	pdPL_noiseMask_170814_1952_075.png	1	1	1.280083	4995.258012
004	0	2	23	53	other_00619_940928_fa_edt.bmp	pd_sm_inkblot_170816_1750_064.png	pdPL_noiseMask_170814_1952_002.png	2	1	1.211829	4996.774162
004	0	2	24	54	black_mb013.bmp	pd_sm_inkblot_170816_1750_055.png	pdPL_noiseMask_170814_1952_067.png	1	1	2.745493	4998.208600
004	0	2	25	55	black_mb027.bmp	pd_sm_inkblot_170816_1750_076.png	pdPL_noiseMask_170814_1952_069.png	1	0	0.996684	5001.189321
004	0	2	26	56	black_00558_940519_fa_edt.bmp	pd_sm_inkblot_170816_1750_087.png	pdPL_noiseMask_170814_1952_080.png	1	1	3.091639	5002.422231
004	0	2	27	57	black_mb014.bmp	pd_sm_inkblot_170816_1750_031.png	pdPL_noiseMask_170814_1952_002.png	1	0	2.528063	5005.737768
004	0	2	28	58	black_00273_940422_fa_edt.bmp	pd_sm_inkblot_170816_1750_046.png	pdPL_noiseMask_170814_1952_082.png	1	1	1.706986	5008.486827
004	0	2	29	59	other_00516_940519_fb_edt.bmp	pd_sm_inkblot_170816_1750_097.png	pdPL_noiseMask_170814_1952_075.png	2	0	1.430381	5010.419500
004	0	2	30	60	white_00340_940422_fa_edt.bmp	pd_sm_inkblot_170816_1750_063.png	pdPL_noiseMask_170814_1952_095.png	0	1	0.988380	5012.085597
004	0	3	01	61	other_00282_940422_fb_edt.bmp	pd_sm_inkblot_170816_1750_074.png	pdPL_noiseMask_170814_1952_037.png	2	0	1.076597	5019.333121
004	0	3	02	62	white_00109_931230_fa_edt.bmp	pd_sm_inkblot_170816_1750_099.png	pdPL_noiseMask_170814_1952_037.png	0	1	1.057025	5020.632666
004	0	3	03	63	white_00299_940422_fa_edt.bmp	pd_sm_inkblot_170816_1750_006.png	pdPL_noiseMask_170814_1952_067.png	0	1	1.910165	5021.915574
004	0	3	04	64	black_00183_940128_fb_edt.bmp	pd_sm_inkblot_170816_1750_075.png	pdPL_noiseMask_170814_1952_065.png	1	0	0.737423	5024.048177
004	0	3	05	65	other_00096_940128_fb_edt.bmp	pd_sm_inkblot_170816_1750_086.png	pdPL_noiseMask_170814_1952_050.png	2	0	1.043115	5025.014515
004	0	3	06	66	white_mw001.bmp	pd_sm_inkblot_170816_1750_016.png	pdPL_noiseMask_170814_1952_062.png	0	0	1.176972	5026.280748
004	0	3	07	67	other_00596_940928_fa_edt.bmp	pd_sm_inkblot_170816_1750_084.png	pdPL_noiseMask_170814_1952_077.png	2	0	1.185381	5027.680275
004	0	3	08	68	black_mb021.bmp	pd_sm_inkblot_170816_1750_049.png	pdPL_noiseMask_170814_1952_004.png	1	1	0.929164	5029.096454
004	0	3	09	69	black_mb009.bmp	pd_sm_inkblot_170816_1750_021.png	pdPL_noiseMask_170814_1952_047.png	1	0	1.778899	5030.262723
004	0	3	10	70	other_00545_940519_fa_edt.bmp	pd_sm_inkblot_170816_1750_033.png	pdPL_noiseMask_170814_1952_062.png	2	1	1.522884	5032.278703
004	0	3	11	71	other_00461_940422_fb_edt.bmp	pd_sm_inkblot_170816_1750_076.png	pdPL_noiseMask_170814_1952_082.png	2	0	0.901430	5034.028106
004	0	3	12	72	black_00257_940128_fa_edt.bmp	pd_sm_inkblot_170816_1750_012.png	pdPL_noiseMask_170814_1952_013.png	1	0	1.160491	5035.161051
004	0	3	13	73	black_mb019.bmp	pd_sm_inkblot_170816_1750_011.png	pdPL_noiseMask_170814_1952_068.png	1	1	1.385647	5036.543911
004	0	3	14	74	other_00415_940422_fb_edt_rot.bmp	pd_sm_inkblot_170816_1750_027.png	pdPL_noiseMask_170814_1952_017.png	2	0	1.377444	5038.160053
004	0	3	15	75	white_00577_940928_fa_edt.bmp	pd_sm_inkblot_170816_1750_062.png	pdPL_noiseMask_170814_1952_026.png	0	1	1.330065	5039.759474
004	0	3	16	76	other_00584_940928_fa_edt.bmp	pd_sm_inkblot_170816_1750_041.png	pdPL_noiseMask_170814_1952_026.png	2	1	1.483793	5041.325596
004	0	3	17	77	other_00580_940928_fa_edt.bmp	pd_sm_inkblot_170816_1750_021.png	pdPL_noiseMask_170814_1952_055.png	2	0	2.143797	5043.041678
004	0	3	18	78	white_00807_941205_fb_edt.bmp	pd_sm_inkblot_170816_1750_043.png	pdPL_noiseMask_170814_1952_093.png	0	1	1.706154	5045.407549
004	0	3	19	79	white_mw009.bmp	pd_sm_inkblot_170816_1750_074.png	pdPL_noiseMask_170814_1952_053.png	0	0	1.101169	5047.340223
004	0	3	20	80	black_00488_940519_fb_edt.bmp	pd_sm_inkblot_170816_1750_022.png	pdPL_noiseMask_170814_1952_037.png	1	1	1.304227	5048.673087
004	0	3	21	81	black_mb016.bmp	pd_sm_inkblot_170816_1750_009.png	pdPL_noiseMask_170814_1952_018.png	1	1	1.299431	5050.205919
004	0	3	22	82	white_00939_960627_fa_edt.bmp	pd_sm_inkblot_170816_1750_011.png	pdPL_noiseMask_170814_1952_041.png	0	1	0.902612	5051.738721
004	0	3	23	83	black_mb008.bmp	pd_sm_inkblot_170816_1750_048.png	pdPL_noiseMask_170814_1952_031.png	1	1	0.969670	5052.871668
004	0	3	24	84	black_mb005.bmp	pd_sm_inkblot_170816_1750_061.png	pdPL_noiseMask_170814_1952_041.png	1	0	1.169987	5054.071246
004	0	3	25	85	white_00898_960530_fa_edt.bmp	pd_sm_inkblot_170816_1750_086.png	pdPL_noiseMask_170814_1952_042.png	0	1	1.506455	5055.470779
004	0	3	26	86	black_00467_940519_fb_edt.bmp	pd_sm_inkblot_170816_1750_045.png	pdPL_noiseMask_170814_1952_055.png	1	0	1.222281	5057.203507
004	0	3	27	87	white_mw019.bmp	pd_sm_inkblot_170816_1750_049.png	pdPL_noiseMask_170814_1952_013.png	0	1	1.060246	5058.653028
004	0	3	28	88	white_00816_941205_fa_edt.bmp	pd_sm_inkblot_170816_1750_053.png	pdPL_noiseMask_170814_1952_055.png	0	1	1.417274	5059.935922
004	0	3	29	89	other_00588_940928_fa_edt.bmp	pd_sm_inkblot_170816_1750_048.png	pdPL_noiseMask_170814_1952_010.png	2	0	1.567835	5061.585358
004	0	3	30	90	other_00566_940928_fb_edt.bmp	pd_sm_inkblot_170816_1750_099.png	pdPL_noiseMask_170814_1952_073.png	2	1	1.440369	5063.384731
004	0	4	01	91	black_00358_940422_fb_edt.bmp	pd_sm_inkblot_170816_1750_047.png	pdPL_noiseMask_170814_1952_062.png	1	1	0.775004	5071.082099
004	0	4	02	92	other_00601_940928_fb_edt.bmp	pd_sm_inkblot_170816_1750_060.png	pdPL_noiseMask_170814_1952_042.png	2	1	1.927340	5072.081774
004	0	4	03	93	white_00341_940422_fa_edt.bmp	pd_sm_inkblot_170816_1750_000.png	pdPL_noiseMask_170814_1952_087.png	0	0	2.082021	5074.231025
004	0	4	04	94	other_00193_940128_fa_edt.bmp	pd_sm_inkblot_170816_1750_068.png	pdPL_noiseMask_170814_1952_065.png	2	0	0.833575	5076.663540
004	0	4	05	95	white_00602_940928_fb_edt.bmp	pd_sm_inkblot_170816_1750_029.png	pdPL_noiseMask_170814_1952_098.png	0	0	0.783869	5077.729848
004	0	4	06	96	black_mb002.bmp	pd_sm_inkblot_170816_1750_000.png	pdPL_noiseMask_170814_1952_059.png	1	0	1.742856	5078.746167
004	0	4	07	97	black_mb011.bmp	pd_sm_inkblot_170816_1750_002.png	pdPL_noiseMask_170814_1952_040.png	1	0	0.976814	5080.712158
004	0	4	08	98	black_mb003.bmp	pd_sm_inkblot_170816_1750_091.png	pdPL_noiseMask_170814_1952_032.png	1	0	0.793172	5081.911749
004	0	4	09	99	white_mw024.bmp	pd_sm_inkblot_170816_1750_082.png	pdPL_noiseMask_170814_1952_014.png	0	0	0.968892	5082.928069
004	0	4	10	100	black_mb025.bmp	pd_sm_inkblot_170816_1750_033.png	pdPL_noiseMask_170814_1952_085.png	1	1	1.169224	5084.127644
004	0	4	11	101	other_00097_931230_fa_edt.bmp	pd_sm_inkblot_170816_1750_049.png	pdPL_noiseMask_170814_1952_053.png	2	1	1.265781	5085.527186
004	0	4	12	102	white_mw004.bmp	pd_sm_inkblot_170816_1750_068.png	pdPL_noiseMask_170814_1952_058.png	0	0	0.822251	5087.026654
004	0	4	13	103	black_00531_940519_fa_edt.bmp	pd_sm_inkblot_170816_1750_019.png	pdPL_noiseMask_170814_1952_017.png	1	0	0.940553	5088.076308
004	0	4	14	104	white_00223_940128_fb_edt.bmp	pd_sm_inkblot_170816_1750_027.png	pdPL_noiseMask_170814_1952_080.png	0	0	1.054191	5089.242580
004	0	4	15	105	other_00618_940928_fb_edt.bmp	pd_sm_inkblot_170816_1750_022.png	pdPL_noiseMask_170814_1952_085.png	2	1	0.971415	5090.525477
004	0	4	16	106	white_00960_960627_fb_edt.bmp	pd_sm_inkblot_170816_1750_009.png	pdPL_noiseMask_170814_1952_028.png	0	0	0.899803	5091.725064
004	0	4	17	107	black_39M_NE_C.bmp	pd_sm_inkblot_170816_1750_086.png	pdPL_noiseMask_170814_1952_016.png	1	1	1.918841	5092.857998
004	0	4	18	108	other_00318_940422_fb_edt.bmp	pd_sm_inkblot_170816_1750_016.png	pdPL_noiseMask_170814_1952_086.png	2	0	1.209489	5095.007277
004	0	4	19	109	white_00199_940128_fa_edt.bmp	pd_sm_inkblot_170816_1750_084.png	pdPL_noiseMask_170814_1952_059.png	0	0	1.784592	5096.440110
004	0	4	20	110	other_00604_940928_fb_edt.bmp	pd_sm_inkblot_170816_1750_091.png	pdPL_noiseMask_170814_1952_035.png	2	1	1.864656	5098.456089
004	0	4	21	111	white_00972_960627_fa_edt.bmp	pd_sm_inkblot_170816_1750_044.png	pdPL_noiseMask_170814_1952_032.png	0	0	0.853257	5100.555369
004	0	4	22	112	black_mb023.bmp	pd_sm_inkblot_170816_1750_032.png	pdPL_noiseMask_170814_1952_093.png	1	0	0.858367	5101.638334
004	0	4	23	113	white_mw025.bmp	pd_sm_inkblot_170816_1750_054.png	pdPL_noiseMask_170814_1952_082.png	0	0	0.783415	5102.721300
004	0	4	24	114	black_00332_940422_fa_edt_contrast.bmp	pd_sm_inkblot_170816_1750_043.png	pdPL_noiseMask_170814_1952_042.png	1	0	0.913117	5103.887580
004	0	4	25	115	other_00046_931230_fa_edt.bmp	pd_sm_inkblot_170816_1750_046.png	pdPL_noiseMask_170814_1952_057.png	2	1	1.691448	5105.037185
004	0	4	26	116	black_mb017.bmp	pd_sm_inkblot_170816_1750_060.png	pdPL_noiseMask_170814_1952_081.png	1	1	1.671361	5106.953196
004	0	4	27	117	other_00178_931230_fa_edt.bmp	pd_sm_inkblot_170816_1750_087.png	pdPL_noiseMask_170814_1952_069.png	2	1	1.260037	5108.852534
004	0	4	28	118	white_mw013.bmp	pd_sm_inkblot_170816_1750_020.png	pdPL_noiseMask_170814_1952_086.png	0	0	0.681400	5110.335373
004	0	4	29	119	other_00587_940928_fa_edt.bmp	pd_sm_inkblot_170816_1750_063.png	pdPL_noiseMask_170814_1952_068.png	2	0	0.925439	5111.251716
004	0	4	30	120	other_00058_931230_fa_edt.bmp	pd_sm_inkblot_170816_1750_002.png	pdPL_noiseMask_170814_1952_061.png	2	0	0.863182	5112.401336
004	0	5	01	121	white_00757_941201_fa_edt.bmp	pd_sm_inkblot_170816_1750_022.png	pdPL_noiseMask_170814_1952_077.png	0	1	0.988290	5119.532221
004	0	5	02	122	other_00116_931230_fa_edt.bmp	pd_sm_inkblot_170816_1750_044.png	pdPL_noiseMask_170814_1952_004.png	2	1	1.691974	5120.748484
004	0	5	03	123	white_00519_940519_fb_edt.bmp	pd_sm_inkblot_170816_1750_046.png	pdPL_noiseMask_170814_1952_043.png	0	0	0.847963	5122.664498
004	0	5	04	124	other_00616_940928_fa_edt_rot.bmp	pd_sm_inkblot_170816_1750_051.png	pdPL_noiseMask_170814_1952_044.png	2	0	1.060883	5123.747461
004	0	5	05	125	other_00139_931230_fb_edt.bmp	pd_sm_inkblot_170816_1750_089.png	pdPL_noiseMask_170814_1952_048.png	2	0	0.898006	5125.030345
004	0	5	06	126	other_00570_940928_fa_edt.bmp	pd_sm_inkblot_170816_1750_043.png	pdPL_noiseMask_170814_1952_058.png	2	1	1.005008	5126.163292
004	0	5	07	127	white_mw012.bmp	pd_sm_inkblot_170816_1750_028.png	pdPL_noiseMask_170814_1952_035.png	0	0	0.844218	5127.396214
004	0	5	08	128	white_00766_941201_fb_edt.bmp	pd_sm_inkblot_170816_1750_045.png	pdPL_noiseMask_170814_1952_081.png	0	1	1.057882	5128.462502
004	0	5	09	129	other_00611_940928_fa_edt_rot.bmp	pd_sm_inkblot_170816_1750_019.png	pdPL_noiseMask_170814_1952_014.png	2	0	0.902943	5129.745419
004	0	5	10	130	black_00801_941205_fa_edt.bmp	pd_sm_inkblot_170816_1750_020.png	pdPL_noiseMask_170814_1952_073.png	1	0	0.914013	5130.878359
004	0	5	11	131	black_38M_NE_C.bmp	pd_sm_inkblot_170816_1750_099.png	pdPL_noiseMask_170814_1952_024.png	1	1	1.100288	5132.027966
004	0	5	12	132	black_00677_941121_fa_edt.bmp	pd_sm_inkblot_170816_1750_059.png	pdPL_noiseMask_170814_1952_043.png	1	0	0.935512	5133.360833
004	0	5	13	133	white_mw018.bmp	pd_sm_inkblot_170816_1750_060.png	pdPL_noiseMask_170814_1952_057.png	0	0	1.401610	5134.527118
004	0	5	14	134	black_00586_940928_fa_edt.bmp	pd_sm_inkblot_170816_1750_054.png	pdPL_noiseMask_170814_1952_087.png	1	1	0.824447	5136.159876
004	0	5	15	135	white_00761_941201_fb_edt.bmp	pd_sm_inkblot_170816_1750_039.png	pdPL_noiseMask_170814_1952_069.png	0	0	0.910711	5137.209531
004	0	5	16	136	other_00582_940928_fb_edt.bmp	pd_sm_inkblot_170816_1750_082.png	pdPL_noiseMask_170814_1952_047.png	2	0	1.465737	5138.342475
004	0	5	17	137	other_00583_940928_fa_edt.bmp	pd_sm_inkblot_170816_1750_009.png	pdPL_noiseMask_170814_1952_083.png	2	0	1.086284	5140.041878
004	0	5	18	138	white_mw022.bmp	pd_sm_inkblot_170816_1750_038.png	pdPL_noiseMask_170814_1952_073.png	0	1	1.154282	5141.358098
004	0	5	19	139	white_00050_931230_fa_edt.bmp	pd_sm_inkblot_170816_1750_051.png	pdPL_noiseMask_170814_1952_047.png	0	0	0.915240	5142.740977
004	0	5	20	140	other_00216_940128_fa_edt.bmp	pd_sm_inkblot_170816_1750_029.png	pdPL_noiseMask_170814_1952_028.png	2	0	0.909655	5143.890583
004	0	5	21	141	black_mb035.bmp	pd_sm_inkblot_170816_1750_084.png	pdPL_noiseMask_170814_1952_014.png	1	1	2.464686	5145.023527
004	0	5	22	142	black_mb015.bmp	pd_sm_inkblot_170816_1750_029.png	pdPL_noiseMask_170814_1952_010.png	1	0	0.925682	5147.722625
004	0	5	23	143	other_00114_931230_fa_edt.bmp	pd_sm_inkblot_170816_1750_032.png	pdPL_noiseMask_170814_1952_001.png	2	0	1.087941	5148.872227
004	0	5	24	144	white_mw016.bmp	pd_sm_inkblot_170816_1750_055.png	pdPL_noiseMask_170814_1952_068.png	0	0	1.579687	5150.188418
004	0	5	25	145	black_00746_941201_fb_edt.bmp	pd_sm_inkblot_170816_1750_038.png	pdPL_noiseMask_170814_1952_098.png	1	1	1.859624	5152.004463
004	0	5	26	146	black_00964_960627_fb_edt.bmp	pd_sm_inkblot_170816_1750_063.png	pdPL_noiseMask_170814_1952_048.png	1	0	1.704957	5154.087105
004	0	5	27	147	white_mw010.bmp	pd_sm_inkblot_170816_1750_003.png	pdPL_noiseMask_170814_1952_083.png	0	0	1.372188	5156.019757
004	0	5	28	148	black_00929_960627_fa_edt.bmp	pd_sm_inkblot_170816_1750_003.png	pdPL_noiseMask_170814_1952_028.png	1	1	2.380682	5157.619225
004	0	5	29	149	other_00234_940128_fb_edt.bmp	pd_sm_inkblot_170816_1750_061.png	pdPL_noiseMask_170814_1952_095.png	2	1	1.716902	5160.234984
004	0	5	30	150	black_mb029.bmp	pd_sm_inkblot_170816_1750_089.png	pdPL_noiseMask_170814_1952_001.png	1	0	0.711670	5162.184333
