SUBJECT ID	CONDITION	BLOCK	TRIAL NUM	CUMULATIVE TRIAL NUM	STIM	STIM VALENCE	STIM RACE	RESPONSE	CORRECT	RT	START TIME	CORRECTION TIME	CORRECTION START
006	1	8	1	1	Disgusting	0	NaN	1	1	0.663598	0.200098	NaN	NaN
006	1	8	2	2	Nasty	0	NaN	1	1	0.486140	0.200096	NaN	NaN
006	1	8	3	3	Horrible	0	NaN	1	1	0.381442	0.200068	NaN	NaN
006	1	8	4	4	Fabulous	1	NaN	0	1	0.463686	0.200057	NaN	NaN
006	1	8	5	5	Lovely	1	NaN	0	1	0.382652	0.200151	NaN	NaN
006	1	8	6	6	Superb	1	NaN	0	1	0.359226	0.200057	NaN	NaN
006	1	8	7	7	Fabulous	1	NaN	0	1	0.426766	0.200021	NaN	NaN
006	1	8	8	8	Wonderful	1	NaN	0	1	0.332022	0.200060	NaN	NaN
006	1	8	9	9	Fabulous	1	NaN	0	1	0.312316	0.200006	NaN	NaN
006	1	8	10	10	Fabulous	1	NaN	0	1	0.302100	0.200061	NaN	NaN
006	1	8	11	11	Nice	1	NaN	0	1	0.580027	0.200069	NaN	NaN
006	1	8	12	12	Terrible	0	NaN	0	0	0.360432	0.200067	0.912858	4527.066492
006	1	8	13	13	Lovely	1	NaN	0	1	0.412943	0.200010	NaN	NaN
006	1	8	14	14	Foul	0	NaN	1	1	0.437749	0.200067	NaN	NaN
006	1	8	15	15	Superb	1	NaN	0	1	0.518319	0.200035	NaN	NaN
006	1	8	16	16	Horrid	0	NaN	1	1	0.507237	0.200032	NaN	NaN
006	1	8	17	17	Disgusting	0	NaN	1	1	0.537214	0.200013	NaN	NaN
006	1	8	18	18	Terrible	0	NaN	1	1	0.343350	0.200038	NaN	NaN
006	1	8	19	19	Terrible	0	NaN	1	1	0.371715	0.200010	NaN	NaN
006	1	8	20	20	Revolting	0	NaN	1	1	0.479985	0.200079	NaN	NaN
006	1	2	1	21	W8jpg.jpg	NaN	0	0	1	0.687225	0.200040	NaN	NaN
006	1	2	2	22	W5jpg.jpg	NaN	0	0	1	0.406930	0.200105	NaN	NaN
006	1	2	3	23	W8jpg.jpg	NaN	0	0	1	0.368565	0.200036	NaN	NaN
006	1	2	4	24	W2jpg.jpg	NaN	0	0	1	0.290469	0.200033	NaN	NaN
006	1	2	5	25	B8jpg.jpg	NaN	1	0	0	0.302938	0.200042	0.798862	4543.227321
006	1	2	6	26	B6jpg.jpg	NaN	1	1	1	0.480663	0.200071	NaN	NaN
006	1	2	7	27	W4jpg.jpg	NaN	0	0	1	0.407020	0.200007	NaN	NaN
006	1	2	8	28	B6jpg.jpg	NaN	1	1	1	0.407436	0.200039	NaN	NaN
006	1	2	9	29	B7jpg.jpg	NaN	1	1	1	0.378108	0.200058	NaN	NaN
006	1	2	10	30	W0jpg.jpg	NaN	0	0	1	0.445839	0.200069	NaN	NaN
006	1	2	11	31	B7jpg.jpg	NaN	1	1	1	0.453209	0.200033	NaN	NaN
006	1	2	12	32	W7jpg.jpg	NaN	0	0	1	0.438302	0.200053	NaN	NaN
006	1	2	13	33	B3jpg.jpg	NaN	1	1	1	0.397598	0.200022	NaN	NaN
006	1	2	14	34	B4jpg.jpg	NaN	1	1	1	0.335498	0.200015	NaN	NaN
006	1	2	15	35	B9jpg.jpg	NaN	1	1	1	0.315955	0.200060	NaN	NaN
006	1	2	16	36	W7jpg.jpg	NaN	0	0	1	0.457448	0.200023	NaN	NaN
006	1	2	17	37	B2jpg.jpg	NaN	1	1	1	0.448742	0.200014	NaN	NaN
006	1	2	18	38	W1jpg.jpg	NaN	0	0	1	0.465769	0.200038	NaN	NaN
006	1	2	19	39	W3jpg.jpg	NaN	0	0	1	0.617372	0.200002	NaN	NaN
006	1	2	20	40	B7jpg.jpg	NaN	1	1	1	0.433743	0.200075	NaN	NaN
006	1	4	1	41	B3jpg.jpg	NaN	1	1	1	0.603581	0.200064	NaN	NaN
006	1	4	2	42	Horrid	0	NaN	1	1	0.589672	0.200043	NaN	NaN
006	1	4	3	43	W2jpg.jpg	NaN	0	0	1	0.528613	0.200012	NaN	NaN
006	1	4	4	44	Horrible	0	NaN	1	1	0.557691	0.200025	NaN	NaN
006	1	4	5	45	B1jpg.jpg	NaN	1	1	1	0.489719	0.200051	NaN	NaN
006	1	4	6	46	Revolting	0	NaN	1	1	0.542195	0.200026	NaN	NaN
006	1	4	7	47	B5jpg.jpg	NaN	1	1	1	0.521872	0.200042	NaN	NaN
006	1	4	8	48	Nasty	0	NaN	1	1	0.542725	0.200012	NaN	NaN
006	1	4	9	49	W7jpg.jpg	NaN	0	0	1	0.514490	0.200021	NaN	NaN
006	1	4	10	50	Fantastic	1	NaN	0	1	0.790171	0.200029	NaN	NaN
006	1	4	11	51	W8jpg.jpg	NaN	0	0	1	0.496344	0.200029	NaN	NaN
006	1	4	12	52	Horrid	0	NaN	1	1	0.957447	0.200045	NaN	NaN
006	1	4	13	53	B0jpg.jpg	NaN	1	1	1	0.561905	0.200004	NaN	NaN
006	1	4	14	54	Nice	1	NaN	0	1	0.964803	0.200045	NaN	NaN
006	1	4	15	55	W6jpg.jpg	NaN	0	0	1	0.936401	0.200020	NaN	NaN
006	1	4	16	56	Lovely	1	NaN	1	0	0.533902	0.200028	1.142200	4577.931457
006	1	4	17	57	W2jpg.jpg	NaN	0	0	1	0.497107	0.200072	NaN	NaN
006	1	4	18	58	Fantastic	1	NaN	1	0	0.767146	0.200080	1.239137	4580.547202
006	1	4	19	59	B0jpg.jpg	NaN	1	1	1	0.535656	0.200041	NaN	NaN
006	1	4	20	60	Lovely	1	NaN	0	1	1.700521	0.200005	NaN	NaN
006	1	4	1	61	B2jpg.jpg	NaN	1	1	1	0.645150	0.200055	NaN	NaN
006	1	4	2	62	Fabulous	1	NaN	0	1	0.516887	0.200014	NaN	NaN
006	1	4	3	63	W8jpg.jpg	NaN	0	0	1	0.496155	0.200043	NaN	NaN
006	1	4	4	64	Disgusting	0	NaN	1	1	0.612928	0.200075	NaN	NaN
006	1	4	5	65	B3jpg.jpg	NaN	1	1	1	1.072058	0.200067	NaN	NaN
006	1	4	6	66	Terrific	1	NaN	1	0	0.431837	0.200079	0.848158	4596.475164
006	1	4	7	67	B1jpg.jpg	NaN	1	1	1	0.415608	0.200066	NaN	NaN
006	1	4	8	68	Superb	1	NaN	0	1	0.568029	0.200020	NaN	NaN
006	1	4	9	69	B6jpg.jpg	NaN	1	0	0	0.506791	0.200078	0.986349	4599.557034
006	1	4	10	70	Wonderful	1	NaN	0	1	0.755953	0.200069	NaN	NaN
006	1	4	11	71	W8jpg.jpg	NaN	0	0	1	0.503242	0.200064	NaN	NaN
006	1	4	12	72	Superb	1	NaN	0	1	0.532338	0.200033	NaN	NaN
006	1	4	13	73	W6jpg.jpg	NaN	0	0	1	0.408200	0.200005	NaN	NaN
006	1	4	14	74	Great	1	NaN	1	0	0.647814	0.200066	1.247757	4604.805150
006	1	4	15	75	B7jpg.jpg	NaN	1	1	1	1.008329	0.200084	NaN	NaN
006	1	4	16	76	Terrible	0	NaN	1	1	0.643489	0.200062	NaN	NaN
006	1	4	17	77	W1jpg.jpg	NaN	0	0	1	0.469122	0.200064	NaN	NaN
006	1	4	18	78	Horrible	0	NaN	1	1	0.434743	0.200060	NaN	NaN
006	1	4	19	79	B6jpg.jpg	NaN	1	1	1	0.356150	0.200029	NaN	NaN
006	1	4	20	80	Horrid	0	NaN	1	1	0.360513	0.200020	NaN	NaN
006	1	4	21	81	W3jpg.jpg	NaN	0	0	1	0.500120	0.200066	NaN	NaN
006	1	4	22	82	Awful	0	NaN	1	1	0.666405	0.200049	NaN	NaN
006	1	4	23	83	B2jpg.jpg	NaN	1	1	1	0.859376	0.200004	NaN	NaN
006	1	4	24	84	Superb	1	NaN	1	0	0.525475	0.200031	0.973438	4614.584988
006	1	4	25	85	W8jpg.jpg	NaN	0	0	1	0.559532	0.200007	NaN	NaN
006	1	4	26	86	Superb	1	NaN	0	1	0.626391	0.200032	NaN	NaN
006	1	4	27	87	B3jpg.jpg	NaN	1	0	0	0.481994	0.200025	0.778167	4617.783865
006	1	4	28	88	Disgusting	0	NaN	1	1	0.605263	0.200040	NaN	NaN
006	1	4	29	89	W1jpg.jpg	NaN	0	0	1	0.551557	0.200004	NaN	NaN
006	1	4	30	90	Horrid	0	NaN	1	1	0.500482	0.200029	NaN	NaN
006	1	4	31	91	W5jpg.jpg	NaN	0	0	1	0.690634	0.200046	NaN	NaN
006	1	4	32	92	Foul	0	NaN	1	1	0.871810	0.200005	NaN	NaN
006	1	4	33	93	B9jpg.jpg	NaN	1	1	1	0.535125	0.200041	NaN	NaN
006	1	4	34	94	Horrible	0	NaN	1	1	0.523882	0.200079	NaN	NaN
006	1	4	35	95	W6jpg.jpg	NaN	0	0	1	0.560782	0.200030	NaN	NaN
006	1	4	36	96	Fantastic	1	NaN	0	1	0.852723	0.200077	NaN	NaN
006	1	4	37	97	W4jpg.jpg	NaN	0	0	1	0.542088	0.200004	NaN	NaN
006	1	4	38	98	Great	1	NaN	0	1	0.505111	0.200003	NaN	NaN
006	1	4	39	99	B6jpg.jpg	NaN	1	1	1	0.517944	0.200021	NaN	NaN
006	1	4	40	100	Horrible	0	NaN	1	1	0.514990	0.200009	NaN	NaN
006	1	1	1	101	Nasty	0	NaN	0	1	0.755540	0.200018	NaN	NaN
006	1	1	2	102	Horrid	0	NaN	0	1	0.535573	0.200054	NaN	NaN
006	1	1	3	103	Terrific	1	NaN	1	1	0.548560	0.200057	NaN	NaN
006	1	1	4	104	Nasty	0	NaN	0	1	0.553513	0.200053	NaN	NaN
006	1	1	5	105	Great	1	NaN	0	0	0.470159	0.200066	0.853698	4640.892365
006	1	1	6	106	Terrible	0	NaN	0	1	0.654566	0.200034	NaN	NaN
006	1	1	7	107	Fabulous	1	NaN	0	0	0.447122	0.200079	0.807487	4643.058149
006	1	1	8	108	Great	1	NaN	1	1	0.434208	0.200010	NaN	NaN
006	1	1	9	109	Wonderful	1	NaN	1	1	0.379176	0.200045	NaN	NaN
006	1	1	10	110	Nice	1	NaN	1	1	0.366067	0.200028	NaN	NaN
006	1	1	11	111	Revolting	0	NaN	1	0	0.321665	0.200005	0.657633	4646.340318
006	1	1	12	112	Terrific	1	NaN	1	1	0.457257	0.200073	NaN	NaN
006	1	1	13	113	Horrible	0	NaN	1	0	0.448853	0.200090	1.000850	4648.272968
006	1	1	14	114	Fantastic	1	NaN	1	1	0.618659	0.200023	NaN	NaN
006	1	1	15	115	Terrific	1	NaN	0	0	0.515934	0.200038	0.852058	4650.672111
006	1	1	16	116	Foul	0	NaN	0	1	0.708671	0.200041	NaN	NaN
006	1	1	17	117	Disgusting	0	NaN	0	1	1.058990	0.200057	NaN	NaN
006	1	1	18	118	Superb	1	NaN	1	1	0.562239	0.200062	NaN	NaN
006	1	1	19	119	Fabulous	1	NaN	1	1	0.470534	0.200089	NaN	NaN
006	1	1	20	120	Revolting	0	NaN	1	0	0.444722	0.200053	0.804858	4656.020211
006	1	1	21	121	Wonderful	1	NaN	1	1	0.511118	0.200020	NaN	NaN
006	1	1	22	122	Horrid	0	NaN	0	1	0.516720	0.200051	NaN	NaN
006	1	1	23	123	Fabulous	1	NaN	1	1	0.577051	0.200077	NaN	NaN
006	1	1	24	124	Foul	0	NaN	0	1	0.468700	0.200046	NaN	NaN
006	1	1	25	125	Terrible	0	NaN	0	1	0.618878	0.200022	NaN	NaN
006	1	1	26	126	Disgusting	0	NaN	0	1	0.492626	0.200003	NaN	NaN
006	1	1	27	127	Great	1	NaN	1	1	0.650864	0.200079	NaN	NaN
006	1	1	28	128	Disgusting	0	NaN	0	1	0.571415	0.200082	NaN	NaN
006	1	1	29	129	Horrid	0	NaN	0	1	0.854249	0.200072	NaN	NaN
006	1	1	30	130	Fabulous	1	NaN	1	1	0.502582	0.200074	NaN	NaN
006	1	1	31	131	Great	1	NaN	0	0	0.388182	0.200010	0.708170	4666.533111
006	1	1	32	132	Foul	0	NaN	0	1	0.578560	0.200071	NaN	NaN
006	1	1	33	133	Disgusting	0	NaN	1	0	0.580081	0.200012	0.908204	4668.715666
006	1	1	34	134	Superb	1	NaN	1	1	1.105981	0.200078	NaN	NaN
006	1	1	35	135	Foul	0	NaN	0	1	1.031786	0.200043	NaN	NaN
006	1	1	36	136	Nasty	0	NaN	0	1	0.601164	0.200009	NaN	NaN
006	1	1	37	137	Horrible	0	NaN	0	1	0.689268	0.200009	NaN	NaN
006	1	1	38	138	Fabulous	1	NaN	1	1	1.023553	0.200083	NaN	NaN
006	1	1	39	139	Nice	1	NaN	1	1	0.529381	0.200028	NaN	NaN
006	1	1	40	140	Fabulous	1	NaN	1	1	0.567294	0.200005	NaN	NaN
006	1	3	1	141	B2jpg.jpg	NaN	1	1	1	0.633984	0.200014	NaN	NaN
006	1	3	2	142	Horrid	0	NaN	0	1	1.361463	0.200071	NaN	NaN
006	1	3	3	143	W6jpg.jpg	NaN	0	1	0	0.822394	0.200025	0.990007	4686.625940
006	1	3	4	144	Lovely	1	NaN	1	1	1.064458	0.200012	NaN	NaN
006	1	3	5	145	W7jpg.jpg	NaN	0	0	1	0.632273	0.200031	NaN	NaN
006	1	3	6	146	Superb	1	NaN	1	1	0.697247	0.200013	NaN	NaN
006	1	3	7	147	B9jpg.jpg	NaN	1	1	1	0.744630	0.200069	NaN	NaN
006	1	3	8	148	Fantastic	1	NaN	1	1	0.444040	0.200078	NaN	NaN
006	1	3	9	149	W3jpg.jpg	NaN	0	1	0	0.557546	0.200065	0.901595	4693.040315
006	1	3	10	150	Foul	0	NaN	0	1	0.539335	0.200004	NaN	NaN
006	1	3	11	151	W0jpg.jpg	NaN	0	0	1	0.455616	0.200057	NaN	NaN
006	1	3	12	152	Awful	0	NaN	0	1	0.512388	0.200033	NaN	NaN
006	1	3	13	153	W4jpg.jpg	NaN	0	0	1	0.413516	0.200020	NaN	NaN
006	1	3	14	154	Superb	1	NaN	1	1	0.526466	0.200010	NaN	NaN
006	1	3	15	155	B1jpg.jpg	NaN	1	1	1	0.716014	0.200018	NaN	NaN
006	1	3	16	156	Horrible	0	NaN	0	1	0.538479	0.200068	NaN	NaN
006	1	3	17	157	B4jpg.jpg	NaN	1	1	1	0.478009	0.200047	NaN	NaN
006	1	3	18	158	Awful	0	NaN	0	1	0.572617	0.200045	NaN	NaN
006	1	3	19	159	B8jpg.jpg	NaN	1	1	1	0.440744	0.200073	NaN	NaN
006	1	3	20	160	Great	1	NaN	1	1	0.944837	0.200084	NaN	NaN
006	1	3	1	161	B8jpg.jpg	NaN	1	1	1	0.583754	0.200019	NaN	NaN
006	1	3	2	162	Great	1	NaN	1	1	0.658114	0.200021	NaN	NaN
006	1	3	3	163	W7jpg.jpg	NaN	0	0	1	0.578788	0.200003	NaN	NaN
006	1	3	4	164	Foul	0	NaN	1	0	0.542036	0.200030	1.078045	4714.749193
006	1	3	5	165	B0jpg.jpg	NaN	1	1	1	0.436857	0.200082	NaN	NaN
006	1	3	6	166	Terrible	0	NaN	1	0	0.812608	0.200033	2.299980	4717.281648
006	1	3	7	167	W5jpg.jpg	NaN	0	0	1	0.569039	0.200034	NaN	NaN
006	1	3	8	168	Terrible	0	NaN	0	1	0.530692	0.200031	NaN	NaN
006	1	3	9	169	B4jpg.jpg	NaN	1	1	1	0.781647	0.200013	NaN	NaN
006	1	3	10	170	Nice	1	NaN	1	1	1.000059	0.200066	NaN	NaN
006	1	3	11	171	W9jpg.jpg	NaN	0	0	1	0.546506	0.200045	NaN	NaN
006	1	3	12	172	Awful	0	NaN	0	1	1.043972	0.200044	NaN	NaN
006	1	3	13	173	W3jpg.jpg	NaN	0	0	1	0.498606	0.200051	NaN	NaN
006	1	3	14	174	Wonderful	1	NaN	0	0	0.559173	0.200005	0.966926	4727.478008
006	1	3	15	175	W2jpg.jpg	NaN	0	1	0	0.626087	0.200016	1.106022	4728.810870
006	1	3	16	176	Wonderful	1	NaN	0	0	0.655365	0.200081	1.439190	4730.360311
006	1	3	17	177	B7jpg.jpg	NaN	1	1	1	0.718216	0.200003	NaN	NaN
006	1	3	18	178	Horrible	0	NaN	0	1	1.171128	0.200042	NaN	NaN
006	1	3	19	179	B1jpg.jpg	NaN	1	1	1	0.701470	0.200066	NaN	NaN
006	1	3	20	180	Fabulous	1	NaN	0	0	0.659824	0.200011	1.163863	4735.891650
006	1	3	21	181	B6jpg.jpg	NaN	1	1	1	0.759447	0.200044	NaN	NaN
006	1	3	22	182	Wonderful	1	NaN	1	1	0.555026	0.200067	NaN	NaN
006	1	3	23	183	B0jpg.jpg	NaN	1	1	1	0.432107	0.200004	NaN	NaN
006	1	3	24	184	Horrid	0	NaN	0	1	0.609046	0.200061	NaN	NaN
006	1	3	25	185	B4jpg.jpg	NaN	1	1	1	0.426976	0.200037	NaN	NaN
006	1	3	26	186	Fantastic	1	NaN	1	1	0.755599	0.200094	NaN	NaN
006	1	3	27	187	B7jpg.jpg	NaN	1	1	1	0.359942	0.200044	NaN	NaN
006	1	3	28	188	Lovely	1	NaN	1	1	0.466911	0.200073	NaN	NaN
006	1	3	29	189	W2jpg.jpg	NaN	0	0	1	0.594412	0.200091	NaN	NaN
006	1	3	30	190	Nasty	0	NaN	0	1	0.517615	0.200003	NaN	NaN
006	1	3	31	191	W8jpg.jpg	NaN	0	0	1	0.465779	0.200056	NaN	NaN
006	1	3	32	192	Superb	1	NaN	1	1	0.696583	0.200028	NaN	NaN
006	1	3	33	193	W3jpg.jpg	NaN	0	0	1	0.441038	0.200070	NaN	NaN
006	1	3	34	194	Horrible	0	NaN	0	1	0.800356	0.200013	NaN	NaN
006	1	3	35	195	W8jpg.jpg	NaN	0	0	1	0.569384	0.200002	NaN	NaN
006	1	3	36	196	Nice	1	NaN	1	1	0.547444	0.200037	NaN	NaN
006	1	3	37	197	B2jpg.jpg	NaN	1	1	1	0.527051	0.200015	NaN	NaN
006	1	3	38	198	Revolting	0	NaN	0	1	0.620126	0.200085	NaN	NaN
006	1	3	39	199	W2jpg.jpg	NaN	0	0	1	0.492556	0.200019	NaN	NaN
006	1	3	40	200	Horrible	0	NaN	1	0	0.577951	0.200050	1.130079	4755.034829
