SUBJECT ID	CONDITION	BLOCK	TRIAL NUM	CUMULATIVE TRIAL NUM	STIM	PARTNER RACE	RESPONSE	RT	START TIME
015	2	1	01	01	black_mb042.bmp	1	6	8.207369	4181.658735
015	2	1	02	02	white_mw095.bmp	0	4	4.597181	4189.988869
015	2	1	03	03	black_mb047.bmp	1	5	3.617939	4194.703939
015	2	1	04	04	white_mw063.bmp	0	3	1.765854	4198.435994
015	2	1	05	05	other_00740_941205_fa_edt.bmp	2	6	3.835135	4200.318779
015	2	1	06	06	white_mw042.bmp	0	7	3.454499	4204.267340
015	2	1	07	07	white_mw070.bmp	0	6	8.480942	4207.832762
015	2	1	08	08	other_00734_941201_fa_edt.bmp	2	6	2.531696	4216.429845
015	2	1	09	09	black_mb064.bmp	1	6	4.346672	4219.078939
015	2	1	10	10	black_mb066.bmp	1	7	4.121485	4223.544080
015	2	1	11	11	black_mb067.bmp	1	7	2.281581	4227.775961
015	2	1	12	12	black_mb097.bmp	1	6	2.698334	4230.175143
015	2	1	13	13	other_00828_940307_fa_edt.bmp	2	4	3.554577	4232.990837
015	2	1	14	14	white_mw044.bmp	0	4	6.969072	4236.656263
015	2	1	15	15	white_mw052.bmp	0	6	3.328043	4243.737167
015	2	1	16	16	other_00841_940307_fb_edt.bmp	2	4	2.711356	4247.185999
015	2	1	17	17	white_mw082.bmp	0	3	6.286867	4250.018369
015	2	1	18	18	black_mb089.bmp	1	5	3.409096	4256.416179
015	2	1	19	19	black_mb046.bmp	1	6	2.220688	4259.948305
015	2	1	20	20	white_mw097.bmp	0	4	2.792173	4262.280844
015	2	1	21	21	other_00666_941121_fa_edt_rot.bmp	2	8	2.909233	4265.179852
015	2	1	22	22	black_mb075.bmp	1	7	3.172891	4268.212153
015	2	1	23	23	black_mb098.bmp	1	6	2.234666	4271.494349
015	2	1	24	24	black_mb050.bmp	1	5	5.701333	4273.843549
015	2	1	25	25	white_mw099.bmp	0	3	3.278605	4279.658263
015	2	1	26	26	other_00793_941205_fb_edt.bmp	2	4	6.543621	4283.057073
015	2	1	27	27	white_mw054.bmp	0	3	4.631241	4289.721470
015	2	1	28	28	white_mw047.bmp	0	7	4.394825	4294.469876
015	2	1	29	29	other_00656_941121_fb_edt.bmp	2	6	2.647685	4298.984979
015	2	1	30	30	black_mb060.bmp	1	7	2.089977	4301.750694
015	2	1	31	31	other_00712_941205_fa_edt.bmp	2	6	3.394520	4303.949936
015	2	1	32	32	white_mw060.bmp	0	7	3.759027	4307.465414
015	2	1	33	33	white_mw098.bmp	0	7	1.677097	4311.347420
015	2	1	34	34	black_mb081.bmp	1	7	2.973619	4313.146807
015	2	1	35	35	white_mw053.bmp	0	4	2.843344	4316.229086
015	2	1	36	36	white_mw073.bmp	0	5	2.549658	4319.194739
015	2	1	37	37	black_mb049.bmp	1	6	1.803800	4321.860495
015	2	1	38	38	black_mb082.bmp	1	6	2.471797	4323.776508
015	2	1	39	39	other_00810_941205_fb_edt_rot.bmp	2	6	2.881329	4326.358947
015	2	1	40	40	other_00724_941201_fa_edt.bmp	2	7	3.114224	4329.357922
015	2	1	41	41	black_mb073.bmp	1	5	2.122043	4332.590153
015	2	1	42	42	white_mw043.bmp	0	3	2.857316	4334.822734
015	2	1	43	43	white_mw091.bmp	0	4	2.683789	4337.788378
015	2	1	44	44	other_00809_941205_fa_edt.bmp	2	6	2.084647	4340.587419
015	2	1	45	45	black_mb056.bmp	1	5	2.653313	4342.786672
015	2	1	46	46	other_00737_941201_fa_edt.bmp	2	7	4.975662	4345.552404
015	2	1	47	47	black_mb071.bmp	1	6	2.517321	4350.650668
015	2	1	48	48	black_mb039.bmp	1	7	3.036831	4353.283084
015	2	1	49	49	white_mw085.bmp	0	2	3.159885	4356.432026
015	2	1	50	50	white_mw033.bmp	0	7	2.837620	4359.714218
015	2	1	51	51	white_mw051.bmp	0	2	3.264663	4362.663226
015	2	1	52	52	white_mw034.bmp	0	8	2.378292	4366.045406
015	2	1	53	53	other_00652_941031_fb_edt.bmp	2	7	3.119137	4368.544560
015	2	1	54	54	white_mw041.bmp	0	6	3.646951	4371.776768
015	2	1	55	55	white_mw078.bmp	0	3	2.665495	4375.542146
015	2	1	56	56	white_mw077.bmp	0	8	4.163050	4378.324543
015	2	1	57	57	other_00921_960627_fb_edt.bmp	2	6	2.129090	4382.606402
015	2	1	58	58	black_mb040.bmp	1	7	2.975799	4384.855648
015	2	1	59	59	other_00866_940307_fa_edt.bmp	2	4	2.269606	4387.937906
015	2	1	60	60	black_mb059.bmp	1	4	5.966990	4390.320447
015	2	1	61	61	other_00911_960530_fa_edt.bmp	2	7	4.341649	4396.401703
015	2	1	62	62	black_mb078.bmp	1	7	1.789130	4400.850171
015	2	1	63	63	white_mw089.bmp	0	4	3.689662	4402.749536
015	2	1	64	64	other_01207_940128_fb_edt.bmp	2	4	1.955117	4406.548242
015	2	1	65	65	white_mw029.bmp	0	6	1.969102	4408.614199
015	2	1	66	66	white_mw038.bmp	0	6	1.790423	4410.696820
015	2	1	67	67	black_mb044.bmp	1	8	2.963036	4412.596171
015	2	1	68	68	other_00672_941121_fa_edt.bmp	2	6	2.032664	4415.678451
015	2	1	69	69	other_00710_960530_fa_edt.bmp	2	7	1.827430	4417.827726
015	2	2	01	70	black_mb055.bmp	1	6	1.806347	4425.808744
015	2	2	02	71	black_mb045.bmp	1	6	1.882654	4427.724321
015	2	2	03	72	black_mb100.bmp	1	7	1.635371	4429.723653
015	2	2	04	73	other_00625_940928_fb_edt.bmp	2	8	1.605904	4431.473055
015	2	2	05	74	black_mb072.bmp	1	7	1.345827	4433.189128
015	2	2	06	75	black_mb057.bmp	1	6	2.671767	4434.655281
015	2	2	07	76	black_mb099.bmp	1	7	1.769224	4437.437696
015	2	2	08	77	white_mw075.bmp	0	3	1.918468	4439.320381
015	2	2	09	78	white_mw072.bmp	0	4	1.725845	4441.353024
015	2	2	10	79	black_mb077.bmp	1	8	2.884455	4443.202394
015	2	2	11	80	white_mw074.bmp	0	4	3.565412	4446.201443
015	2	2	12	81	black_mb062.bmp	1	8	1.515388	4449.883470
015	2	2	13	82	other_00880_960530_fa_edt.bmp	2	8	1.426567	4451.516226
015	2	2	14	83	other_00976_960627_fb_edt.bmp	2	4	1.884996	4453.065727
015	2	2	15	84	white_mw084.bmp	0	2	2.581682	4455.065013
015	2	2	16	85	other_00912_960530_fa_edt.bmp	2	6	2.330561	4457.764083
015	2	2	17	86	other_00621_941121_fa_edt.bmp	2	5	2.937425	4460.213261
015	2	2	18	87	black_mb058.bmp	1	6	3.320283	4463.262204
015	2	2	19	88	black_mb092.bmp	1	7	2.696141	4466.694408
015	2	2	20	89	other_00623_940928_fb_edt.bmp	2	4	2.544360	4469.510144
015	2	2	21	90	white_mw067.bmp	0	6	2.278651	4472.175837
015	2	2	22	91	other_00795_941205_fb_edt.bmp	2	6	2.719404	4474.575012
015	2	2	23	92	black_mb070.bmp	1	6	1.783086	4477.407378
015	2	2	24	93	white_mw066.bmp	0	6	2.619557	4479.306760
015	2	2	25	94	other_00869_940307_fa_edt.bmp	2	4	2.415236	4482.039122
015	2	2	26	95	other_00763_941201_fb_edt.bmp	2	4	2.010621	4484.571667
015	2	2	27	96	white_mw076.bmp	0	6	2.398019	4486.704195
015	2	2	28	97	white_mw065.bmp	0	4	2.922284	4489.220008
015	2	2	29	98	black_mb065.bmp	1	7	2.136746	4492.485546
015	2	2	30	99	white_mw071.bmp	0	7	1.471426	4494.734782
015	2	2	31	100	other_00733_941201_fa_edt.bmp	2	3	2.336583	4496.317582
015	2	2	32	101	white_mw049.bmp	0	6	3.823340	4498.766744
015	2	2	33	102	white_mw057.bmp	0	2	3.563332	4502.698717
015	2	2	34	103	other_00622_940928_fb_edt.bmp	2	4	2.689216	4506.380799
015	2	2	35	104	white_mw048.bmp	0	3	2.130154	4509.179839
015	2	2	36	105	white_mw080.bmp	0	6	4.064861	4511.429074
015	2	2	37	106	white_mw046.bmp	0	3	2.042838	4515.610990
015	2	2	38	107	black_mb068.bmp	1	7	4.837546	4517.760241
015	2	2	39	108	other_00797_941205_fb_edt.bmp	2	4	2.361255	4522.708552
015	2	2	40	109	black_mb063.bmp	1	8	2.350606	4525.191049
015	2	2	41	110	other_00698_941121_fb_edt.bmp	2	6	2.036878	4527.656875
015	2	2	42	111	black_mb093.bmp	1	7	1.935640	4529.806139
015	2	2	43	112	black_mb088.bmp	1	7	3.886155	4531.855442
015	2	2	44	113	white_mw039.bmp	0	6	2.319611	4535.854063
015	2	2	45	114	other_00933_960627_fa_edt.bmp	2	6	2.039111	4538.286577
015	2	2	46	115	black_mb094.bmp	1	7	1.777652	4540.435846
015	2	2	47	116	white_mw035.bmp	0	4	2.766304	4542.335212
015	2	2	48	117	white_mw092.bmp	0	4	2.516028	4545.217531
015	2	2	49	118	black_mb061.bmp	1	6	2.771517	4547.849977
015	2	2	50	119	black_mb083.bmp	1	4	2.705167	4550.732331
015	2	2	51	120	other_00629_940928_fa_edt.bmp	2	7	3.089389	4553.548031
015	2	2	52	121	black_mb069.bmp	1	6	1.890423	4556.746940
015	2	2	53	122	black_mb038.bmp	1	6	1.731113	4558.746256
015	2	2	54	123	black_mb096.bmp	1	6	2.137692	4560.595623
015	2	2	55	124	black_mb054.bmp	1	7	4.608461	4562.844855
015	2	2	56	125	black_mb085.bmp	1	8	1.461343	4567.559912
015	2	2	57	126	other_00668_941121_fa_edt.bmp	2	7	1.470574	4569.142694
015	2	2	58	127	other_00726_941201_fb_edt.bmp	2	4	2.807783	4570.725486
015	2	2	59	128	white_mw096.bmp	0	5	2.755928	4573.641165
015	2	2	60	129	black_mb051.bmp	1	6	4.114283	4576.506841
015	2	2	61	130	black_mb079.bmp	1	4	1.410970	4580.738745
015	2	2	62	131	other_00859_940307_fa_edt.bmp	2	6	1.861560	4582.271557
015	2	2	63	132	white_mw056.bmp	0	4	2.311018	4584.254198
015	2	2	64	133	white_mw040.bmp	0	3	2.094282	4586.686725
015	2	2	65	134	other_00640_941031_fa_edt_rot.bmp	2	3	5.582307	4588.902622
015	2	2	66	135	white_mw068.bmp	0	6	4.292176	4594.600665
015	2	2	67	136	other_00926_960627_fa_edt.bmp	2	6	2.540983	4599.015821
015	2	2	68	137	other_00673_941121_fa_edt_rot.bmp	2	6	1.899945	4601.664919
015	2	2	69	138	white_mw058.bmp	0	7	1.875969	4603.680906
