SUBJECT ID	CONDITION	BLOCK	TRIAL NUM	CUMULATIVE TRIAL NUM	STIM	PARTNER RACE	RESPONSE	RT	START TIME
034	2	1	01	01	other_00734_941201_fa_edt.bmp	2	6	5.864596	4941.798954
034	2	1	02	02	black_mb070.bmp	1	7	3.075714	4947.779836
034	2	1	03	03	black_mb075.bmp	1	5	2.692787	4950.978730
034	2	1	04	04	white_mw084.bmp	0	5	5.092964	4953.794446
034	2	1	05	05	white_mw080.bmp	0	6	3.637995	4959.009425
034	2	1	06	06	other_00859_940307_fa_edt.bmp	2	6	4.416640	4962.774701
034	2	1	07	07	black_mb079.bmp	1	3	3.844718	4967.306476
034	2	1	08	08	white_mw071.bmp	0	7	5.599378	4971.271802
034	2	1	09	09	black_mb057.bmp	1	5	2.644582	4976.986520
034	2	1	10	10	black_mb092.bmp	1	5	3.022835	4979.752240
034	2	1	11	11	black_mb094.bmp	1	6	3.274532	4982.884499
034	2	1	12	12	black_mb073.bmp	1	6	2.204616	4986.266678
034	2	1	13	13	white_mw039.bmp	0	8	3.608388	4988.582554
034	2	1	14	14	other_00921_960627_fb_edt.bmp	2	7	3.060944	4992.297951
034	2	1	15	15	other_00880_960530_fa_edt.bmp	2	7	2.558718	4995.480198
034	2	1	16	16	white_mw043.bmp	0	4	3.916892	4998.145954
034	2	1	17	17	white_mw063.bmp	0	3	2.220912	5002.177897
034	2	1	18	18	white_mw091.bmp	0	7	2.424328	5004.510448
034	2	1	19	19	other_00621_941121_fa_edt.bmp	2	6	3.251838	5007.042916
034	2	1	20	20	other_00740_941205_fa_edt.bmp	2	8	4.862246	5010.408440
034	2	1	21	21	white_mw078.bmp	0	6	2.440586	5015.390064
034	2	1	22	22	white_mw077.bmp	0	2	3.995591	5017.939196
034	2	1	23	23	black_mb063.bmp	1	6	2.752246	5022.054457
034	2	1	24	24	black_mb059.bmp	1	8	2.174375	5024.920142
034	2	1	25	25	white_mw057.bmp	0	5	2.443756	5027.202694
034	2	1	26	26	black_mb089.bmp	1	7	2.709923	5029.768490
034	2	1	27	27	black_mb046.bmp	1	5	1.885590	5032.600860
034	2	1	28	28	white_mw067.bmp	0	4	2.262249	5034.600164
034	2	1	29	29	black_mb083.bmp	1	4	2.111676	5036.982691
034	2	1	30	30	other_00810_941205_fb_edt_rot.bmp	2	5	2.719048	5039.215262
034	2	1	31	31	black_mb047.bmp	1	3	2.294695	5042.047615
034	2	1	32	32	white_mw053.bmp	0	6	4.462790	5044.463470
034	2	1	33	33	black_mb093.bmp	1	6	3.048937	5049.045237
034	2	1	34	34	other_00698_941121_fb_edt.bmp	2	4	2.739334	5052.210822
034	2	1	35	35	black_mb096.bmp	1	4	2.306276	5055.059849
034	2	1	36	36	other_00976_960627_fb_edt.bmp	2	4	2.138420	5057.475691
034	2	1	37	37	other_00673_941121_fa_edt_rot.bmp	2	5	2.201156	5059.724919
034	2	1	38	38	black_mb097.bmp	1	6	2.269198	5062.040797
034	2	1	39	39	black_mb065.bmp	1	4	2.718665	5064.423321
034	2	1	40	40	white_mw056.bmp	0	6	2.414350	5067.255671
034	2	1	41	41	white_mw075.bmp	0	3	3.329775	5069.788152
034	2	1	42	42	black_mb058.bmp	1	5	2.312943	5073.236964
034	2	1	43	43	black_mb045.bmp	1	6	3.296397	5075.669477
034	2	1	44	44	white_mw041.bmp	0	2	1.904886	5079.084981
034	2	1	45	45	white_mw082.bmp	0	2	2.272881	5081.100955
034	2	1	46	46	other_00926_960627_fa_edt.bmp	2	3	1.634359	5083.483462
034	2	1	47	47	white_mw034.bmp	0	6	3.212917	5085.232880
034	2	1	48	48	other_00869_940307_fa_edt.bmp	2	5	2.136759	5088.565069
034	2	1	49	49	other_01207_940128_fb_edt.bmp	2	5	1.791417	5090.814307
034	2	1	50	50	white_mw099.bmp	0	4	1.812031	5092.713642
034	2	1	51	51	other_00724_941201_fa_edt.bmp	2	5	1.783322	5094.646331
034	2	1	52	52	white_mw065.bmp	0	7	3.188432	5096.545677
034	2	1	53	53	white_mw033.bmp	0	8	2.897052	5099.844551
034	2	1	54	54	other_00795_941205_fb_edt.bmp	2	5	1.857379	5102.860187
034	2	1	55	55	white_mw085.bmp	0	5	2.739235	5104.826238
034	2	1	56	56	white_mw048.bmp	0	4	3.466297	5107.675217
034	2	1	57	57	black_mb038.bmp	1	4	1.988089	5111.257326
034	2	1	58	58	white_mw049.bmp	0	6	3.456767	5113.356614
034	2	1	59	59	other_00710_960530_fa_edt.bmp	2	5	1.819345	5116.922043
034	2	1	60	60	black_mb072.bmp	1	6	3.078583	5118.854734
034	2	1	61	61	white_mw029.bmp	0	5	2.311710	5122.053638
034	2	1	62	62	other_00623_940928_fb_edt.bmp	2	5	1.815184	5124.486140
034	2	1	63	63	other_00622_940928_fb_edt.bmp	2	7	5.010500	5126.418815
034	2	1	64	64	black_mb051.bmp	1	5	2.078832	5131.550399
034	2	1	65	65	white_mw052.bmp	0	5	2.127509	5133.749631
034	2	1	66	66	other_00737_941201_fa_edt.bmp	2	7	2.846129	5135.998862
034	2	1	67	67	other_00911_960530_fa_edt.bmp	2	5	1.656543	5138.964543
034	2	1	68	68	black_mb040.bmp	1	7	8.058362	5140.730598
034	2	1	69	69	other_00726_941201_fb_edt.bmp	2	4	1.758294	5148.911138
034	2	2	01	70	black_mb061.bmp	1	5	3.220233	5156.808636
034	2	2	02	71	white_mw074.bmp	0	4	1.560189	5160.140633
034	2	2	03	72	other_00652_941031_fb_edt.bmp	2	7	3.397344	5161.823387
034	2	2	04	73	black_mb098.bmp	1	5	2.257894	5165.338856
034	2	2	05	74	white_mw047.bmp	0	3	2.924022	5167.704713
034	2	2	06	75	other_00912_960530_fa_edt.bmp	2	7	2.323727	5170.737004
034	2	2	07	76	white_mw073.bmp	0	3	2.035193	5173.169502
034	2	2	08	77	black_mb055.bmp	1	4	2.341824	5175.318784
034	2	2	09	78	white_mw044.bmp	0	6	2.476673	5177.767944
034	2	2	10	79	white_mw060.bmp	0	4	3.797464	5180.367052
034	2	2	11	80	black_mb100.bmp	1	4	3.362130	5184.282392
034	2	2	12	81	black_mb056.bmp	1	6	2.071932	5187.764536
034	2	2	13	82	black_mb082.bmp	1	6	1.753372	5189.947103
034	2	2	14	83	black_mb066.bmp	1	7	1.895290	5191.813133
034	2	2	15	84	black_mb099.bmp	1	7	2.367220	5193.829149
034	2	2	16	85	black_mb077.bmp	1	7	2.172708	5196.311611
034	2	2	17	86	other_00656_941121_fb_edt.bmp	2	5	3.346122	5198.594167
034	2	2	18	87	other_00797_941205_fb_edt.bmp	2	5	2.240655	5202.059636
034	2	2	19	88	black_mb068.bmp	1	4	3.179346	5204.408893
034	2	2	20	89	white_mw038.bmp	0	6	4.704423	5207.707736
034	2	2	21	90	white_mw070.bmp	0	3	2.009476	5212.522736
034	2	2	22	91	other_00933_960627_fa_edt.bmp	2	6	3.629466	5214.638680
034	2	2	23	92	other_00763_941201_fb_edt.bmp	2	7	2.144697	5218.387396
034	2	2	24	93	black_mb088.bmp	1	4	1.902764	5220.653299
034	2	2	25	94	other_00841_940307_fb_edt.bmp	2	4	3.438737	5222.669283
034	2	2	26	95	black_mb039.bmp	1	6	1.473922	5226.218067
034	2	2	27	96	other_00666_941121_fa_edt_rot.bmp	2	7	3.435245	5227.800844
034	2	2	28	97	other_00733_941201_fa_edt.bmp	2	5	2.134290	5231.349644
034	2	2	29	98	white_mw096.bmp	0	4	2.653049	5233.598881
034	2	2	30	99	white_mw097.bmp	0	2	3.615281	5236.364597
034	2	2	31	100	white_mw089.bmp	0	5	3.187197	5240.096673
034	2	2	32	101	black_mb050.bmp	1	4	2.056196	5243.395516
034	2	2	33	102	black_mb078.bmp	1	8	2.154297	5245.561462
034	2	2	34	103	black_mb049.bmp	1	7	1.928407	5247.827351
034	2	2	35	104	white_mw095.bmp	0	5	1.623018	5249.876652
034	2	2	36	105	white_mw058.bmp	0	6	2.330239	5251.609392
034	2	2	37	106	white_mw076.bmp	0	3	1.985086	5254.058556
034	2	2	38	107	other_00793_941205_fb_edt.bmp	2	5	2.045790	5256.157838
034	2	2	39	108	white_mw066.bmp	0	4	2.423808	5258.323768
034	2	2	40	109	other_00640_941031_fa_edt_rot.bmp	2	4	1.723347	5260.856223
034	2	2	41	110	other_00866_940307_fa_edt.bmp	2	6	1.794602	5262.688943
034	2	2	42	111	black_mb064.bmp	1	4	2.038583	5264.604953
034	2	2	43	112	black_mb062.bmp	1	6	5.577251	5266.754218
034	2	2	44	113	white_mw092.bmp	0	4	1.983138	5272.452271
034	2	2	45	114	white_mw040.bmp	0	7	2.571787	5274.551559
034	2	2	46	115	white_mw051.bmp	0	3	2.481403	5277.233958
034	2	2	47	116	white_mw098.bmp	0	3	4.298214	5279.833074
034	2	2	48	117	white_mw072.bmp	0	3	1.675137	5284.248230
034	2	2	49	118	white_mw042.bmp	0	7	3.524274	5286.030952
034	2	2	50	119	black_mb042.bmp	1	6	1.692124	5289.663065
034	2	2	51	120	other_00809_941205_fa_edt.bmp	2	7	2.740452	5291.462680
034	2	2	52	121	black_mb081.bmp	1	5	1.819602	5294.311506
034	2	2	53	122	white_mw054.bmp	0	4	1.630930	5296.244146
034	2	2	54	123	white_mw068.bmp	0	6	2.489505	5297.993549
034	2	2	55	124	other_00672_941121_fa_edt.bmp	2	5	2.930457	5300.592661
034	2	2	56	125	other_00625_940928_fb_edt.bmp	2	7	2.329468	5303.641626
034	2	2	57	126	black_mb085.bmp	1	4	2.184207	5306.090785
034	2	2	58	127	other_00629_940928_fa_edt.bmp	2	5	1.861013	5308.389997
034	2	2	59	128	black_mb067.bmp	1	7	1.566212	5310.372666
034	2	2	60	129	other_00712_941205_fa_edt.bmp	2	5	2.043482	5312.055399
034	2	2	61	130	white_mw046.bmp	0	4	4.885510	5314.221342
034	2	2	62	131	other_00828_940307_fa_edt.bmp	2	4	1.535203	5319.219633
034	2	2	63	132	black_mb054.bmp	1	5	2.413723	5320.869070
034	2	2	64	133	black_mb069.bmp	1	5	1.697216	5323.401542
034	2	2	65	134	black_mb071.bmp	1	4	2.425114	5325.217588
034	2	2	66	135	black_mb060.bmp	1	6	2.380620	5327.750085
034	2	2	67	136	white_mw035.bmp	0	4	5.361437	5330.249186
034	2	2	68	137	other_00668_941121_fa_edt.bmp	2	5	1.983939	5335.730693
034	2	2	69	138	black_mb044.bmp	1	7	1.596663	5337.829954
