SUBJECT ID	CONDITION	BLOCK	TRIAL NUM	CUMULATIVE TRIAL NUM	STIM	PARTNER RACE	RESPONSE	RT	START TIME
007	2	1	01	01	white_mw089.bmp	0	4	6.472032	3778.180374
007	2	1	02	02	white_mw077.bmp	0	5	1.779162	3784.761102
007	2	1	03	03	black_mb049.bmp	1	6	1.615849	3786.660481
007	2	1	04	04	white_mw044.bmp	0	4	1.627020	3788.393230
007	2	1	05	05	black_mb042.bmp	1	3	1.454136	3790.142730
007	2	1	06	06	black_mb073.bmp	1	5	1.318851	3791.725418
007	2	1	07	07	white_mw097.bmp	0	2	1.669853	3793.158274
007	2	1	08	08	black_mb099.bmp	1	8	1.207266	3794.940986
007	2	1	09	09	black_mb082.bmp	1	4	3.050918	3796.257202
007	2	1	10	10	black_mb075.bmp	1	3	1.757212	3799.422816
007	2	1	11	11	black_mb060.bmp	1	8	2.435294	3801.288830
007	2	1	12	12	black_mb098.bmp	1	3	1.750123	3803.837974
007	2	1	13	13	white_mw039.bmp	0	7	1.299995	3805.704001
007	2	1	14	14	other_00656_941121_fb_edt.bmp	2	4	1.835923	3807.120188
007	2	1	15	15	black_mb071.bmp	1	2	1.742509	3809.069530
007	2	1	16	16	white_mw040.bmp	0	3	1.645140	3810.918913
007	2	1	17	17	white_mw068.bmp	0	6	2.359075	3812.684982
007	2	1	18	18	white_mw096.bmp	0	8	1.637128	3815.150828
007	2	1	19	19	other_00623_940928_fb_edt.bmp	2	7	1.823754	3816.900222
007	2	1	20	20	white_mw073.bmp	0	2	2.139014	3818.832917
007	2	1	21	21	other_00793_941205_fb_edt.bmp	2	7	2.393767	3821.082135
007	2	1	22	22	black_mb038.bmp	1	3	1.781965	3823.597949
007	2	1	23	23	white_mw054.bmp	0	4	5.298434	3825.497304
007	2	1	24	24	other_00859_940307_fa_edt.bmp	2	2	3.795670	3830.912164
007	2	1	25	25	other_00880_960530_fa_edt.bmp	2	7	1.640210	3834.827507
007	2	1	26	26	other_00866_940307_fa_edt.bmp	2	4	1.722859	3836.576912
007	2	1	27	27	other_00763_941201_fb_edt.bmp	2	5	1.986111	3838.409609
007	2	1	28	28	black_mb085.bmp	1	7	1.710874	3840.508892
007	2	1	29	29	white_mw056.bmp	0	7	2.598135	3842.341612
007	2	1	30	30	white_mw060.bmp	0	4	2.538371	3845.057340
007	2	1	31	31	other_00911_960530_fa_edt.bmp	2	3	2.497117	3847.706467
007	2	1	32	32	black_mb097.bmp	1	3	1.697399	3850.322262
007	2	1	33	33	black_mb081.bmp	1	4	1.401255	3852.138314
007	2	1	34	34	white_mw033.bmp	0	5	1.765041	3853.654481
007	2	1	35	35	white_mw078.bmp	0	3	1.338459	3855.537164
007	2	1	36	36	other_00921_960627_fb_edt.bmp	2	7	1.344910	3856.986651
007	2	1	37	37	white_mw091.bmp	0	5	3.606804	3858.452820
007	2	1	38	38	other_00733_941201_fa_edt.bmp	2	8	1.707305	3862.168217
007	2	1	39	39	other_00698_941121_fb_edt.bmp	2	9	2.251231	3863.984271
007	2	1	40	40	white_mw048.bmp	0	4	2.029254	3866.350172
007	2	1	41	41	other_00926_960627_fa_edt.bmp	2	5	1.664056	3868.499437
007	2	1	42	42	black_mb056.bmp	1	4	1.729307	3870.282175
007	2	1	43	43	white_mw034.bmp	0	5	3.047908	3872.131551
007	2	1	44	44	black_mb077.bmp	1	4	1.666314	3875.297122
007	2	1	45	45	other_00737_941201_fa_edt.bmp	2	3	3.715507	3877.079839
007	2	1	46	46	black_mb079.bmp	1	2	1.291497	3880.911889
007	2	1	47	47	black_mb065.bmp	1	5	1.243880	3882.311416
007	2	1	48	48	other_01207_940128_fb_edt.bmp	2	6	1.341645	3883.677643
007	2	1	49	49	white_mw049.bmp	0	5	1.596081	3885.127154
007	2	1	50	50	other_00795_941205_fb_edt.bmp	2	4	1.824114	3886.843215
007	2	1	51	51	black_mb044.bmp	1	3	1.251394	3888.775918
007	2	1	52	52	white_mw098.bmp	0	2	1.525145	3890.142123
007	2	1	53	53	other_00809_941205_fa_edt.bmp	2	3	1.452290	3891.774903
007	2	1	54	54	white_mw065.bmp	0	5	2.950199	3893.341017
007	2	1	55	55	white_mw057.bmp	0	4	1.788487	3896.406653
007	2	1	56	56	white_mw051.bmp	0	4	4.841192	3898.305990
007	2	1	57	57	white_mw071.bmp	0	3	1.364857	3903.254337
007	2	1	58	58	white_mw035.bmp	0	4	1.545902	3904.737171
007	2	1	59	59	other_00724_941201_fa_edt.bmp	2	5	1.319790	3906.403275
007	2	1	60	60	other_00673_941121_fa_edt_rot.bmp	2	4	3.262837	3907.836144
007	2	1	61	61	black_mb062.bmp	1	6	2.216730	3911.218326
007	2	1	62	62	white_mw080.bmp	0	3	2.036248	3913.550841
007	2	1	63	63	black_mb067.bmp	1	4	1.270814	3915.700121
007	2	1	64	64	white_mw058.bmp	0	4	1.367971	3917.082986
007	2	1	65	65	white_mw067.bmp	0	5	2.069173	3918.565803
007	2	1	66	66	white_mw052.bmp	0	6	1.262498	3920.748413
007	2	1	67	67	black_mb046.bmp	1	7	1.271726	3922.131300
007	2	1	68	68	black_mb040.bmp	1	8	1.696862	3923.514153
007	2	1	69	69	white_mw099.bmp	0	4	1.528780	3925.330203
007	2	2	01	70	other_00797_941205_fb_edt.bmp	2	7	4.519414	3933.011328
007	2	2	02	71	other_00828_940307_fa_edt.bmp	2	6	1.304138	3937.642685
007	2	2	03	72	other_00712_941205_fa_edt.bmp	2	7	2.071991	3939.058875
007	2	2	04	73	other_00668_941121_fa_edt.bmp	2	2	1.153420	3941.241503
007	2	2	05	74	white_mw084.bmp	0	1	1.663052	3942.507728
007	2	2	06	75	white_mw041.bmp	0	1	2.128246	3944.290474
007	2	2	07	76	black_mb047.bmp	1	3	1.639035	3946.539710
007	2	2	08	77	white_mw092.bmp	0	7	1.889608	3948.289119
007	2	2	09	78	other_00841_940307_fb_edt.bmp	2	7	1.882329	3950.288405
007	2	2	10	79	black_mb088.bmp	1	8	1.875000	3952.287741
007	2	2	11	80	black_mb083.bmp	1	2	1.316277	3954.270416
007	2	2	12	81	black_mb059.bmp	1	1	1.579473	3955.703252
007	2	2	13	82	white_mw043.bmp	0	3	2.135989	3957.402663
007	2	2	14	83	white_mw047.bmp	0	1	1.734717	3959.651926
007	2	2	15	84	black_mb069.bmp	1	4	1.469305	3961.501314
007	2	2	16	85	white_mw095.bmp	0	2	1.214658	3963.084098
007	2	2	17	86	black_mb094.bmp	1	1	1.841589	3964.416977
007	2	2	18	87	black_mb089.bmp	1	6	3.116257	3966.366323
007	2	2	19	88	other_00621_941121_fa_edt.bmp	2	5	4.531892	3969.598589
007	2	2	20	89	black_mb045.bmp	1	3	2.387545	3974.247004
007	2	2	21	90	other_00912_960530_fa_edt.bmp	2	8	1.664292	3976.746156
007	2	2	22	91	other_00640_941031_fa_edt_rot.bmp	2	3	1.793526	3978.528896
007	2	2	23	92	black_mb058.bmp	1	6	2.133576	3980.444886
007	2	2	24	93	other_00734_941201_fa_edt.bmp	2	3	1.436256	3982.694143
007	2	2	25	94	other_00726_941201_fb_edt.bmp	2	3	2.166754	3984.243622
007	2	2	26	95	other_00622_940928_fb_edt.bmp	2	5	3.324230	3986.526144
007	2	2	27	96	black_mb054.bmp	1	4	1.724031	3989.958315
007	2	2	28	97	white_mw066.bmp	0	6	2.612033	3991.791043
007	2	2	29	98	black_mb100.bmp	1	4	2.470854	3994.523445
007	2	2	30	99	white_mw082.bmp	0	6	1.128363	3997.105935
007	2	2	31	100	white_mw038.bmp	0	3	1.246780	3998.355511
007	2	2	32	101	black_mb066.bmp	1	5	1.776575	3999.721702
007	2	2	33	102	black_mb055.bmp	1	7	1.805165	4001.621072
007	2	2	34	103	other_00869_940307_fa_edt.bmp	2	4	2.217172	4003.537091
007	2	2	35	104	black_mb068.bmp	1	5	1.572576	4005.869612
007	2	2	36	105	other_00933_960627_fa_edt.bmp	2	7	1.857817	4007.552379
007	2	2	37	106	white_mw053.bmp	0	7	1.355815	4009.518377
007	2	2	38	107	other_00976_960627_fb_edt.bmp	2	7	1.657576	4010.984547
007	2	2	39	108	white_mw029.bmp	0	3	3.763504	4012.750617
007	2	2	40	109	white_mw072.bmp	0	5	1.753497	4016.632647
007	2	2	41	110	white_mw046.bmp	0	3	1.703380	4018.498684
007	2	2	42	111	white_mw085.bmp	0	2	1.263254	4020.314732
007	2	2	43	112	other_00625_940928_fb_edt.bmp	2	5	1.792409	4021.697622
007	2	2	44	113	black_mb092.bmp	1	7	1.588991	4023.596935
007	2	2	45	114	black_mb064.bmp	1	7	2.889580	4025.296372
007	2	2	46	115	black_mb096.bmp	1	4	1.586676	4028.295357
007	2	2	47	116	black_mb050.bmp	1	6	1.247096	4029.994789
007	2	2	48	117	other_00629_940928_fa_edt.bmp	2	7	1.176970	4031.360987
007	2	2	49	118	other_00652_941031_fb_edt.bmp	2	5	2.901406	4032.660570
007	2	2	50	119	white_mw042.bmp	0	3	1.237751	4035.676217
007	2	2	51	120	black_mb093.bmp	1	3	1.816149	4037.025763
007	2	2	52	121	black_mb072.bmp	1	7	2.651440	4038.958493
007	2	2	53	122	black_mb063.bmp	1	4	4.221682	4041.724149
007	2	2	54	123	black_mb070.bmp	1	4	1.689812	4046.056005
007	2	2	55	124	white_mw075.bmp	0	5	9.434329	4047.855406
007	2	2	56	125	white_mw076.bmp	0	6	1.231525	4057.402190
007	2	2	57	126	other_00710_960530_fa_edt.bmp	2	8	2.538004	4058.751725
007	2	2	58	127	black_mb051.bmp	1	6	1.536897	4061.400826
007	2	2	59	128	white_mw070.bmp	0	5	1.863342	4063.050267
007	2	2	60	129	black_mb061.bmp	1	4	1.360770	4065.032915
007	2	2	61	130	black_mb057.bmp	1	3	1.213913	4066.515752
007	2	2	62	131	other_00740_941205_fa_edt.bmp	2	5	1.961016	4067.848667
007	2	2	63	132	white_mw074.bmp	0	6	2.614232	4069.931295
007	2	2	64	133	black_mb039.bmp	1	3	1.209860	4072.663711
007	2	2	65	134	other_00810_941205_fb_edt_rot.bmp	2	4	4.684970	4073.996585
007	2	2	66	135	other_00672_941121_fa_edt.bmp	2	5	2.110570	4078.794941
007	2	2	67	136	other_00666_941121_fa_edt_rot.bmp	2	4	1.278026	4081.027504
007	2	2	68	137	black_mb078.bmp	1	8	2.310432	4082.427046
007	2	2	69	138	white_mw063.bmp	0	3	1.853791	4084.859582
