SUBJECT ID	CONDITION	BLOCK	TRIAL NUM	CUMULATIVE TRIAL NUM	STIM	INK	MASK	STIM RACE	RESPONSE	RT	START TIME
046	1	80	01	01	black_00358_940422_fb_edt.bmp	pd_sm_inkblot_170816_1750_053.png	pdPR_noiseMask_170814_1952_077.png	1	0	1.278142	23566.030988
046	1	80	02	02	white_00785_941205_fb_edt.bmp	pd_sm_inkblot_170816_1750_071.png	pdPR_noiseMask_170814_1952_023.png	0	1	0.781948	23567.647111
046	1	80	03	03	other_00596_940928_fa_edt.bmp	pd_sm_inkblot_170816_1750_044.png	pdPR_noiseMask_170814_1952_030.png	2	1	0.795667	23568.713419
046	1	1	01	01	other_00619_940928_fa_edt.bmp	pd_sm_inkblot_170816_1750_028.png	pdPR_noiseMask_170814_1952_083.png	2	1	0.972199	23580.809291
046	1	1	02	02	other_00132_931230_fb_edt.bmp	pd_sm_inkblot_170816_1750_026.png	pdPR_noiseMask_170814_1952_044.png	2	1	0.756551	23582.008867
046	1	1	03	03	other_00575_940928_fb_edt.bmp	pd_sm_inkblot_170816_1750_054.png	pdPR_noiseMask_170814_1952_070.png	2	1	0.741122	23582.991865
046	1	1	04	04	other_00490_940519_fb_edt.bmp	pd_sm_inkblot_170816_1750_033.png	pdPR_noiseMask_170814_1952_085.png	2	1	0.566785	23583.958214
046	1	1	05	05	other_00246_940128_fa_edt.bmp	pd_sm_inkblot_170816_1750_035.png	pdPR_noiseMask_170814_1952_004.png	2	1	0.614989	23584.757932
046	1	1	06	06	white_00597_940928_fb_edt.bmp	pd_sm_inkblot_170816_1750_011.png	pdPR_noiseMask_170814_1952_028.png	0	1	0.701362	23585.607650
046	1	1	07	07	white_00757_941201_fa_edt.bmp	pd_sm_inkblot_170816_1750_074.png	pdPR_noiseMask_170814_1952_001.png	0	0	1.048216	23586.540665
046	1	1	08	08	other_00178_931230_fa_edt.bmp	pd_sm_inkblot_170816_1750_073.png	pdPR_noiseMask_170814_1952_097.png	2	0	0.557330	23587.823561
046	1	1	09	09	black_00332_940422_fa_edt_contrast.bmp	pd_sm_inkblot_170816_1750_026.png	pdPR_noiseMask_170814_1952_007.png	1	0	0.614343	23588.606626
046	1	1	10	10	black_mb032.bmp	pd_sm_inkblot_170816_1750_089.png	pdPR_noiseMask_170814_1952_043.png	1	0	0.596597	23589.456336
046	1	1	11	11	black_00558_940519_fa_edt.bmp	pd_sm_inkblot_170816_1750_046.png	pdPR_noiseMask_170814_1952_087.png	1	0	0.532027	23590.289384
046	1	1	12	12	black_mb016.bmp	pd_sm_inkblot_170816_1750_054.png	pdPR_noiseMask_170814_1952_024.png	1	1	0.461045	23591.055790
046	1	1	13	13	black_00531_940519_fa_edt.bmp	pd_sm_inkblot_170816_1750_030.png	pdPR_noiseMask_170814_1952_089.png	1	1	0.537954	23591.738891
046	1	1	14	14	other_00216_940128_fa_edt.bmp	pd_sm_inkblot_170816_1750_097.png	pdPR_noiseMask_170814_1952_071.png	2	1	0.587617	23592.505280
046	1	1	15	15	black_mb005.bmp	pd_sm_inkblot_170816_1750_001.png	pdPR_noiseMask_170814_1952_008.png	1	0	0.843651	23593.321682
046	1	1	16	16	other_00122_931230_fa_edt.bmp	pd_sm_inkblot_170816_1750_055.png	pdPR_noiseMask_170814_1952_024.png	2	1	0.560792	23594.387984
046	1	1	17	17	other_00580_940928_fa_edt.bmp	pd_sm_inkblot_170816_1750_082.png	pdPR_noiseMask_170814_1952_013.png	2	1	0.881800	23595.171050
046	1	1	18	18	black_00108_940128_fb_edt.bmp	pd_sm_inkblot_170816_1750_003.png	pdPR_noiseMask_170814_1952_053.png	1	0	0.493480	23596.287322
046	1	1	19	19	white_00939_960627_fa_edt.bmp	pd_sm_inkblot_170816_1750_035.png	pdPR_noiseMask_170814_1952_059.png	0	1	0.593026	23597.003758
046	1	1	20	20	white_00764_941201_fa_edt.bmp	pd_sm_inkblot_170816_1750_070.png	pdPR_noiseMask_170814_1952_044.png	0	1	0.520674	23597.820147
046	1	1	21	21	black_mb026.bmp	pd_sm_inkblot_170816_1750_038.png	pdPR_noiseMask_170814_1952_065.png	1	1	0.930847	23598.569889
046	1	1	22	22	black_00453_940422_fb_edt.bmp	pd_sm_inkblot_170816_1750_083.png	pdPR_noiseMask_170814_1952_078.png	1	0	0.557002	23599.736158
046	1	1	23	23	black_00677_941121_fa_edt.bmp	pd_sm_inkblot_170816_1750_051.png	pdPR_noiseMask_170814_1952_097.png	1	1	0.901514	23600.519224
046	1	1	24	24	white_mw025.bmp	pd_sm_inkblot_170816_1750_002.png	pdPR_noiseMask_170814_1952_041.png	0	0	0.993119	23601.652171
046	1	1	25	25	white_00761_941201_fb_edt.bmp	pd_sm_inkblot_170816_1750_073.png	pdPR_noiseMask_170814_1952_065.png	0	0	0.624854	23602.868423
046	1	1	26	26	white_00897_960530_fb_edt.bmp	pd_sm_inkblot_170816_1750_057.png	pdPR_noiseMask_170814_1952_084.png	0	1	0.495140	23603.718132
046	1	1	27	27	white_mw001.bmp	pd_sm_inkblot_170816_1750_093.png	pdPR_noiseMask_170814_1952_094.png	0	1	1.010206	23604.434554
046	1	1	28	28	white_00960_960627_fb_edt.bmp	pd_sm_inkblot_170816_1750_025.png	pdPR_noiseMask_170814_1952_036.png	0	0	1.081137	23605.667467
046	1	1	29	29	white_00807_941205_fb_edt.bmp	pd_sm_inkblot_170816_1750_082.png	pdPR_noiseMask_170814_1952_014.png	0	0	1.509489	23606.983683
046	1	1	30	30	other_00110_931230_fb_edt.bmp	pd_sm_inkblot_170816_1750_069.png	pdPR_noiseMask_170814_1952_008.png	2	1	0.656724	23608.716448
046	1	2	01	31	other_00058_931230_fa_edt.bmp	pd_sm_inkblot_170816_1750_091.png	pdPR_noiseMask_170814_1952_032.png	2	1	0.782377	23615.630728
046	1	2	02	32	other_00583_940928_fa_edt.bmp	pd_sm_inkblot_170816_1750_031.png	pdPR_noiseMask_170814_1952_020.png	2	0	0.637918	23616.647049
046	1	2	03	33	black_00964_960627_fb_edt.bmp	pd_sm_inkblot_170816_1750_011.png	pdPR_noiseMask_170814_1952_084.png	1	1	0.843564	23617.513405
046	1	2	04	34	other_00247_941121_fb_edt.bmp	pd_sm_inkblot_170816_1750_010.png	pdPR_noiseMask_170814_1952_093.png	2	1	0.585289	23618.579722
046	1	2	05	35	white_00657_941121_fa_edt.bmp	pd_sm_inkblot_170816_1750_061.png	pdPR_noiseMask_170814_1952_092.png	0	1	0.552976	23619.396112
046	1	2	06	36	other_00070_941121_fb_edt.bmp	pd_sm_inkblot_170816_1750_003.png	pdPR_noiseMask_170814_1952_007.png	2	1	0.737870	23620.179176
046	1	2	07	37	other_00193_940128_fa_edt.bmp	pd_sm_inkblot_170816_1750_063.png	pdPR_noiseMask_170814_1952_053.png	2	0	0.610971	23621.145498
046	1	2	08	38	black_00183_940128_fb_edt.bmp	pd_sm_inkblot_170816_1750_069.png	pdPR_noiseMask_170814_1952_082.png	1	1	0.489965	23621.978547
046	1	2	09	39	white_00898_960530_fa_edt.bmp	pd_sm_inkblot_170816_1750_001.png	pdPR_noiseMask_170814_1952_043.png	0	1	0.725822	23622.694983
046	1	2	10	40	black_mb011.bmp	pd_sm_inkblot_170816_1750_035.png	pdPR_noiseMask_170814_1952_039.png	1	0	0.551709	23623.644644
046	1	2	11	41	white_mw016.bmp	pd_sm_inkblot_170816_1750_067.png	pdPR_noiseMask_170814_1952_020.png	0	1	0.600693	23624.427711
046	1	2	12	42	other_00604_940928_fb_edt.bmp	pd_sm_inkblot_170816_1750_059.png	pdPR_noiseMask_170814_1952_036.png	2	0	0.448036	23625.260765
046	1	2	13	43	white_mw006.bmp	pd_sm_inkblot_170816_1750_085.png	pdPR_noiseMask_170814_1952_069.png	0	1	0.556943	23625.943873
046	1	2	14	44	other_00234_940128_fb_edt.bmp	pd_sm_inkblot_170816_1750_038.png	pdPR_noiseMask_170814_1952_072.png	2	1	0.917991	23626.726939
046	1	2	15	45	white_00659_941121_fa_edt.bmp	pd_sm_inkblot_170816_1750_064.png	pdPR_noiseMask_170814_1952_004.png	0	1	0.463922	23627.876547
046	1	2	16	46	black_00467_940519_fb_edt.bmp	pd_sm_inkblot_170816_1750_082.png	pdPR_noiseMask_170814_1952_085.png	1	1	0.579977	23628.576307
046	1	2	17	47	white_mw012.bmp	pd_sm_inkblot_170816_1750_054.png	pdPR_noiseMask_170814_1952_099.png	0	0	0.660205	23629.392695
046	1	2	18	48	white_00283_940422_fa_edt.bmp	pd_sm_inkblot_170816_1750_026.png	pdPR_noiseMask_170814_1952_083.png	0	1	0.784666	23630.275728
046	1	2	19	49	black_mb014.bmp	pd_sm_inkblot_170816_1750_064.png	pdPR_noiseMask_170814_1952_088.png	1	0	0.880858	23631.292033
046	1	2	20	50	other_00237_940128_fb_edt.bmp	pd_sm_inkblot_170816_1750_011.png	pdPR_noiseMask_170814_1952_048.png	2	1	1.012136	23632.408332
046	1	2	21	51	white_00253_940128_fa_edt.bmp	pd_sm_inkblot_170816_1750_038.png	pdPR_noiseMask_170814_1952_075.png	0	1	1.139024	23633.641245
046	1	2	22	52	other_00415_940422_fb_edt_rot.bmp	pd_sm_inkblot_170816_1750_020.png	pdPR_noiseMask_170814_1952_098.png	2	1	1.044841	23635.007445
046	1	2	23	53	other_00570_940928_fa_edt.bmp	pd_sm_inkblot_170816_1750_009.png	pdPR_noiseMask_170814_1952_050.png	2	1	0.859007	23636.273679
046	1	2	24	54	white_00248_940128_fa_edt.bmp	pd_sm_inkblot_170816_1750_046.png	pdPR_noiseMask_170814_1952_098.png	0	1	0.936173	23637.356645
046	1	2	25	55	black_00716_941201_fa_edt_rot.bmp	pd_sm_inkblot_170816_1750_085.png	pdPR_noiseMask_170814_1952_004.png	1	0	0.761904	23638.522911
046	1	2	26	56	black_00917_960620_fa_edt.bmp	pd_sm_inkblot_170816_1750_031.png	pdPR_noiseMask_170814_1952_014.png	1	0	0.730407	23639.505908
046	1	2	27	57	black_00488_940519_fb_edt.bmp	pd_sm_inkblot_170816_1750_086.png	pdPR_noiseMask_170814_1952_093.png	1	0	0.715979	23640.472230
046	1	2	28	58	white_00341_940422_fa_edt.bmp	pd_sm_inkblot_170816_1750_020.png	pdPR_noiseMask_170814_1952_082.png	0	1	0.806344	23641.421923
046	1	2	29	59	black_mb018.bmp	pd_sm_inkblot_170816_1750_068.png	pdPR_noiseMask_170814_1952_042.png	1	0	0.637274	23642.454901
046	1	2	30	60	black_mb017.bmp	pd_sm_inkblot_170816_1750_055.png	pdPR_noiseMask_170814_1952_069.png	1	0	0.570971	23643.321273
046	1	3	01	61	black_mb031.bmp	pd_sm_inkblot_170816_1750_091.png	pdPR_noiseMask_170814_1952_040.png	1	0	0.660306	23650.152272
046	1	3	02	62	white_mw004.bmp	pd_sm_inkblot_170816_1750_040.png	pdPR_noiseMask_170814_1952_078.png	0	1	0.497292	23651.035304
046	1	3	03	63	other_00046_931230_fa_edt.bmp	pd_sm_inkblot_170816_1750_051.png	pdPR_noiseMask_170814_1952_046.png	2	1	0.427659	23651.768388
046	1	3	04	64	white_00120_931230_fa_edt.bmp	pd_sm_inkblot_170816_1750_003.png	pdPR_noiseMask_170814_1952_008.png	0	1	0.434280	23652.418166
046	1	3	05	65	other_00617_940928_fb_edt.bmp	pd_sm_inkblot_170816_1750_095.png	pdPR_noiseMask_170814_1952_011.png	2	1	0.391834	23653.084604
046	1	3	06	66	other_00205_940128_fa_edt.bmp	pd_sm_inkblot_170816_1750_057.png	pdPR_noiseMask_170814_1952_082.png	2	1	0.455556	23653.701075
046	1	3	07	67	white_00591_940928_fa_edt.bmp	pd_sm_inkblot_170816_1750_081.png	pdPR_noiseMask_170814_1952_097.png	0	1	0.460450	23654.384160
046	1	3	08	68	other_00096_940128_fb_edt.bmp	pd_sm_inkblot_170816_1750_002.png	pdPR_noiseMask_170814_1952_092.png	2	1	0.385370	23655.067260
046	1	3	09	69	other_00139_931230_fb_edt.bmp	pd_sm_inkblot_170816_1750_098.png	pdPR_noiseMask_170814_1952_015.png	2	1	0.528561	23655.683716
046	1	3	10	70	white_00129_931230_fb_edt.bmp	pd_sm_inkblot_170816_1750_086.png	pdPR_noiseMask_170814_1952_088.png	0	1	0.571127	23656.433461
046	1	3	11	71	white_mw019.bmp	pd_sm_inkblot_170816_1750_083.png	pdPR_noiseMask_170814_1952_015.png	0	1	0.651438	23657.233173
046	1	3	12	72	other_00611_940928_fa_edt_rot.bmp	pd_sm_inkblot_170816_1750_085.png	pdPR_noiseMask_170814_1952_042.png	2	1	0.567772	23658.116207
046	1	3	13	73	black_mb008.bmp	pd_sm_inkblot_170816_1750_074.png	pdPR_noiseMask_170814_1952_072.png	1	0	0.840092	23658.915946
046	1	3	14	74	white_mw010.bmp	pd_sm_inkblot_170816_1750_076.png	pdPR_noiseMask_170814_1952_013.png	0	0	0.662288	23659.982233
046	1	3	15	75	other_00584_940928_fa_edt.bmp	pd_sm_inkblot_170816_1750_027.png	pdPR_noiseMask_170814_1952_028.png	2	1	0.475190	23660.865268
046	1	3	16	76	black_mb004.bmp	pd_sm_inkblot_170816_1750_020.png	pdPR_noiseMask_170814_1952_071.png	1	0	0.598898	23661.565041
046	1	3	17	77	white_mw009.bmp	pd_sm_inkblot_170816_1750_063.png	pdPR_noiseMask_170814_1952_022.png	0	0	0.734396	23662.398090
046	1	3	18	78	white_mw024.bmp	pd_sm_inkblot_170816_1750_033.png	pdPR_noiseMask_170814_1952_002.png	0	1	0.927469	23663.364412
046	1	3	19	79	black_mb029.bmp	pd_sm_inkblot_170816_1750_095.png	pdPR_noiseMask_170814_1952_001.png	1	1	1.441898	23664.514034
046	1	3	20	80	other_00588_940928_fa_edt.bmp	pd_sm_inkblot_170816_1750_006.png	pdPR_noiseMask_170814_1952_002.png	2	1	0.808187	23666.180131
046	1	3	21	81	black_mb027.bmp	pd_sm_inkblot_170816_1750_009.png	pdPR_noiseMask_170814_1952_021.png	1	0	0.559141	23667.213136
046	1	3	22	82	black_mb023.bmp	pd_sm_inkblot_170816_1750_063.png	pdPR_noiseMask_170814_1952_059.png	1	0	0.503617	23667.996181
046	1	3	23	83	white_00223_940128_fb_edt.bmp	pd_sm_inkblot_170816_1750_014.png	pdPR_noiseMask_170814_1952_087.png	0	1	0.490649	23668.729261
046	1	3	24	84	other_00616_940928_fa_edt_rot.bmp	pd_sm_inkblot_170816_1750_089.png	pdPR_noiseMask_170814_1952_043.png	2	1	0.646250	23669.445668
046	1	3	25	85	black_mb013.bmp	pd_sm_inkblot_170816_1750_061.png	pdPR_noiseMask_170814_1952_056.png	1	0	0.747669	23670.328703
046	1	3	26	86	black_mb021.bmp	pd_sm_inkblot_170816_1750_081.png	pdPR_noiseMask_170814_1952_083.png	1	1	0.668784	23671.311699
046	1	3	27	87	black_00929_960627_fa_edt.bmp	pd_sm_inkblot_170816_1750_097.png	pdPR_noiseMask_170814_1952_046.png	1	1	0.504504	23672.211413
046	1	3	28	88	other_00097_931230_fa_edt.bmp	pd_sm_inkblot_170816_1750_014.png	pdPR_noiseMask_170814_1952_075.png	2	1	0.851330	23672.944490
046	1	3	29	89	black_mb009.bmp	pd_sm_inkblot_170816_1750_092.png	pdPR_noiseMask_170814_1952_022.png	1	0	0.520427	23674.027451
046	1	3	30	90	white_mw015.bmp	pd_sm_inkblot_170816_1750_091.png	pdPR_noiseMask_170814_1952_071.png	0	0	0.939164	23674.777197
046	1	4	01	91	black_mb003.bmp	pd_sm_inkblot_170816_1750_040.png	pdPR_noiseMask_170814_1952_020.png	1	1	1.173551	23681.974736
046	1	4	02	92	black_38M_NE_C.bmp	pd_sm_inkblot_170816_1750_070.png	pdPR_noiseMask_170814_1952_002.png	1	0	0.502085	23683.374247
046	1	4	03	93	other_00512_940519_fa_edt.bmp	pd_sm_inkblot_170816_1750_076.png	pdPR_noiseMask_170814_1952_089.png	2	1	0.616380	23684.107327
046	1	4	04	94	other_00261_940128_fb_edt.bmp	pd_sm_inkblot_170816_1750_068.png	pdPR_noiseMask_170814_1952_040.png	2	1	0.526952	23684.957056
046	1	4	05	95	other_00545_940519_fa_edt.bmp	pd_sm_inkblot_170816_1750_040.png	pdPR_noiseMask_170814_1952_059.png	2	1	0.528831	23685.706808
046	1	4	06	96	other_00383_941031_fa_edt_rot.bmp	pd_sm_inkblot_170816_1750_086.png	pdPR_noiseMask_170814_1952_021.png	2	0	0.643134	23686.456552
046	1	4	07	97	black_mb006.bmp	pd_sm_inkblot_170816_1750_006.png	pdPR_noiseMask_170814_1952_099.png	1	1	0.560660	23687.322921
046	1	4	08	98	white_00874_940307_fa_edt.bmp	pd_sm_inkblot_170816_1750_031.png	pdPR_noiseMask_170814_1952_048.png	0	1	0.665640	23688.105975
046	1	4	09	99	black_mb020.bmp	pd_sm_inkblot_170816_1750_093.png	pdPR_noiseMask_170814_1952_075.png	1	0	0.598475	23689.005670
046	1	4	10	100	white_00340_940422_fa_edt.bmp	pd_sm_inkblot_170816_1750_027.png	pdPR_noiseMask_170814_1952_079.png	0	1	0.653384	23689.838718
046	1	4	11	101	white_00816_941205_fa_edt.bmp	pd_sm_inkblot_170816_1750_097.png	pdPR_noiseMask_170814_1952_070.png	0	1	0.945928	23690.721749
046	1	4	12	102	black_mb033.bmp	pd_sm_inkblot_170816_1750_098.png	pdPR_noiseMask_170814_1952_044.png	1	0	0.587328	23691.904666
046	1	4	13	103	white_00602_940928_fb_edt.bmp	pd_sm_inkblot_170816_1750_095.png	pdPR_noiseMask_170814_1952_042.png	0	0	0.666992	23692.721067
046	1	4	14	104	black_39M_NE_C.bmp	pd_sm_inkblot_170816_1750_025.png	pdPR_noiseMask_170814_1952_015.png	1	0	0.735419	23693.620744
046	1	4	15	105	black_00746_941201_fb_edt.bmp	pd_sm_inkblot_170816_1750_028.png	pdPR_noiseMask_170814_1952_013.png	1	1	0.264502	23694.587104
046	1	4	16	106	white_00109_931230_fa_edt.bmp	pd_sm_inkblot_170816_1750_030.png	pdPR_noiseMask_170814_1952_024.png	0	1	0.564572	23695.086925
046	1	4	17	107	other_00618_940928_fb_edt.bmp	pd_sm_inkblot_170816_1750_046.png	pdPR_noiseMask_170814_1952_039.png	2	1	0.588926	23695.886661
046	1	4	18	108	white_mw022.bmp	pd_sm_inkblot_170816_1750_052.png	pdPR_noiseMask_170814_1952_021.png	0	1	0.668538	23696.703042
046	1	4	19	109	black_mb019.bmp	pd_sm_inkblot_170816_1750_036.png	pdPR_noiseMask_170814_1952_032.png	1	0	0.304743	23697.602710
046	1	4	20	110	other_00516_940519_fb_edt.bmp	pd_sm_inkblot_170816_1750_092.png	pdPR_noiseMask_170814_1952_014.png	2	1	0.731595	23698.135871
046	1	4	21	111	other_00461_940422_fb_edt.bmp	pd_sm_inkblot_170816_1750_037.png	pdPR_noiseMask_170814_1952_094.png	2	1	0.581293	23699.102220
046	1	4	22	112	other_00029_940128_fa_edt.bmp	pd_sm_inkblot_170816_1750_070.png	pdPR_noiseMask_170814_1952_079.png	2	1	0.628960	23699.918610
046	1	4	23	113	other_00282_940422_fb_edt.bmp	pd_sm_inkblot_170816_1750_083.png	pdPR_noiseMask_170814_1952_099.png	2	0	0.515661	23700.768318
046	1	4	24	114	black_00857_940307_fa_edt.bmp	pd_sm_inkblot_170816_1750_073.png	pdPR_noiseMask_170814_1952_050.png	1	1	0.621493	23701.518047
046	1	4	25	115	other_00610_940928_fa_edt.bmp	pd_sm_inkblot_170816_1750_025.png	pdPR_noiseMask_170814_1952_087.png	2	1	0.499799	23702.367772
046	1	4	26	116	white_mw003.bmp	pd_sm_inkblot_170816_1750_006.png	pdPR_noiseMask_170814_1952_093.png	0	1	0.678596	23703.100854
046	1	4	27	117	white_00577_940928_fa_edt.bmp	pd_sm_inkblot_170816_1750_068.png	pdPR_noiseMask_170814_1952_050.png	0	0	0.467393	23704.000547
046	1	4	28	118	white_00299_940422_fa_edt.bmp	pd_sm_inkblot_170816_1750_028.png	pdPR_noiseMask_170814_1952_089.png	0	1	0.455203	23704.700308
046	1	4	29	119	black_mb015.bmp	pd_sm_inkblot_170816_1750_057.png	pdPR_noiseMask_170814_1952_079.png	1	1	0.524452	23705.383415
046	1	4	30	120	white_mw018.bmp	pd_sm_inkblot_170816_1750_092.png	pdPR_noiseMask_170814_1952_040.png	0	1	0.830305	23706.133137
046	1	5	01	121	black_00586_940928_fa_edt.bmp	pd_sm_inkblot_170816_1750_037.png	pdPR_noiseMask_170814_1952_028.png	1	0	0.676795	23713.230729
046	1	5	02	122	black_mb001.bmp	pd_sm_inkblot_170816_1750_052.png	pdPR_noiseMask_170814_1952_048.png	1	0	0.536858	23714.130417
046	1	5	03	123	white_mw028.bmp	pd_sm_inkblot_170816_1750_037.png	pdPR_noiseMask_170814_1952_025.png	0	1	0.378843	23714.896829
046	1	5	04	124	black_mb025.bmp	pd_sm_inkblot_170816_1750_067.png	pdPR_noiseMask_170814_1952_041.png	1	1	0.483035	23715.496608
046	1	5	05	125	black_00257_940128_fa_edt.bmp	pd_sm_inkblot_170816_1750_033.png	pdPR_noiseMask_170814_1952_094.png	1	1	0.486496	23716.213089
046	1	5	06	126	other_00318_940422_fb_edt.bmp	pd_sm_inkblot_170816_1750_064.png	pdPR_noiseMask_170814_1952_065.png	2	1	0.514372	23716.929471
046	1	5	07	127	white_00766_941201_fb_edt.bmp	pd_sm_inkblot_170816_1750_098.png	pdPR_noiseMask_170814_1952_007.png	0	1	0.443994	23717.679210
046	1	5	08	128	other_00614_940928_fa_edt.bmp	pd_sm_inkblot_170816_1750_030.png	pdPR_noiseMask_170814_1952_069.png	2	1	0.433563	23718.345635
046	1	5	09	129	white_00519_940519_fb_edt.bmp	pd_sm_inkblot_170816_1750_055.png	pdPR_noiseMask_170814_1952_011.png	0	1	0.567692	23719.012087
046	1	5	10	130	white_00050_931230_fa_edt.bmp	pd_sm_inkblot_170816_1750_089.png	pdPR_noiseMask_170814_1952_053.png	0	0	0.496024	23719.811806
046	1	5	11	131	white_mw002.bmp	pd_sm_inkblot_170816_1750_009.png	pdPR_noiseMask_170814_1952_046.png	0	1	0.586797	23720.544896
046	1	5	12	132	other_00119_931230_fb_edt.bmp	pd_sm_inkblot_170816_1750_067.png	pdPR_noiseMask_170814_1952_001.png	2	1	0.497975	23721.361286
046	1	5	13	133	other_00116_931230_fa_edt.bmp	pd_sm_inkblot_170816_1750_036.png	pdPR_noiseMask_170814_1952_022.png	2	1	0.709361	23722.094368
046	1	5	14	134	white_00658_941121_fb_edt.bmp	pd_sm_inkblot_170816_1750_069.png	pdPR_noiseMask_170814_1952_056.png	0	0	0.559687	23723.027391
046	1	5	15	135	other_00587_940928_fa_edt.bmp	pd_sm_inkblot_170816_1750_093.png	pdPR_noiseMask_170814_1952_078.png	2	1	0.528757	23723.810453
046	1	5	16	136	black_mb002.bmp	pd_sm_inkblot_170816_1750_002.png	pdPR_noiseMask_170814_1952_011.png	1	1	0.714971	23724.560193
046	1	5	17	137	black_mb030.bmp	pd_sm_inkblot_170816_1750_027.png	pdPR_noiseMask_170814_1952_092.png	1	1	0.581373	23725.509868
046	1	5	18	138	white_00199_940128_fa_edt.bmp	pd_sm_inkblot_170816_1750_010.png	pdPR_noiseMask_170814_1952_039.png	0	0	0.341622	23726.326261
046	1	5	19	139	other_00114_931230_fa_edt.bmp	pd_sm_inkblot_170816_1750_001.png	pdPR_noiseMask_170814_1952_088.png	2	1	0.590484	23726.892739
046	1	5	20	140	other_00582_940928_fb_edt.bmp	pd_sm_inkblot_170816_1750_081.png	pdPR_noiseMask_170814_1952_025.png	2	1	0.526518	23727.709103
046	1	5	21	141	white_00972_960627_fa_edt.bmp	pd_sm_inkblot_170816_1750_036.png	pdPR_noiseMask_170814_1952_085.png	0	0	0.624250	23728.458860
046	1	5	22	142	black_00273_940422_fa_edt.bmp	pd_sm_inkblot_170816_1750_059.png	pdPR_noiseMask_170814_1952_098.png	1	0	0.622916	23729.308571
046	1	5	23	143	black_mb010.bmp	pd_sm_inkblot_170816_1750_014.png	pdPR_noiseMask_170814_1952_070.png	1	1	0.444898	23730.158265
046	1	5	24	144	white_mw008.bmp	pd_sm_inkblot_170816_1750_051.png	pdPR_noiseMask_170814_1952_072.png	0	1	0.642942	23730.824720
046	1	5	25	145	other_00566_940928_fb_edt.bmp	pd_sm_inkblot_170816_1750_074.png	pdPR_noiseMask_170814_1952_084.png	2	0	0.616033	23731.691090
046	1	5	26	146	black_00801_941205_fa_edt.bmp	pd_sm_inkblot_170816_1750_076.png	pdPR_noiseMask_170814_1952_025.png	1	1	0.686310	23732.540800
046	1	5	27	147	white_mw013.bmp	pd_sm_inkblot_170816_1750_059.png	pdPR_noiseMask_170814_1952_032.png	0	1	0.562423	23733.457150
046	1	5	28	148	black_mb035.bmp	pd_sm_inkblot_170816_1750_010.png	pdPR_noiseMask_170814_1952_036.png	1	0	0.562878	23734.240219
046	1	5	29	149	other_00578_940928_fa_edt.bmp	pd_sm_inkblot_170816_1750_052.png	pdPR_noiseMask_170814_1952_056.png	2	0	0.467167	23735.039947
046	1	5	30	150	other_00601_940928_fb_edt.bmp	pd_sm_inkblot_170816_1750_061.png	pdPR_noiseMask_170814_1952_041.png	2	1	0.367318	23735.739708
