SUBJECT ID	CONDITION	BLOCK	TRIAL NUM	CUMULATIVE TRIAL NUM	STIM	PARTNER RACE	RESPONSE	RT	START TIME
012	1	1	01	01	black_mb093.bmp	1	7	10.147776	14382.398350
012	1	1	02	02	other_00640_941031_fa_edt_rot.bmp	2	2	6.221300	14392.660687
012	1	1	03	03	other_00809_941205_fa_edt.bmp	2	4	3.714038	14398.991767
012	1	1	04	04	white_mw038.bmp	0	4	8.465819	14402.823758
012	1	1	05	05	white_mw054.bmp	0	3	2.973507	14411.404081
012	1	1	06	06	black_mb085.bmp	1	5	3.867111	14414.486331
012	1	1	07	07	white_mw056.bmp	0	4	3.069085	14418.468272
012	1	1	08	08	black_mb065.bmp	1	5	2.838824	14421.650507
012	1	1	09	09	black_mb058.bmp	1	3	3.393799	14424.599453
012	1	1	10	10	white_mw076.bmp	0	4	4.510300	14428.114887
012	1	1	11	11	black_mb082.bmp	1	5	2.998935	14432.746622
012	1	1	12	12	white_mw097.bmp	0	4	3.242782	14435.862166
012	1	1	13	13	white_mw058.bmp	0	6	3.133304	14439.227639
012	1	1	14	14	black_mb054.bmp	1	5	3.476336	14442.476513
012	1	1	15	15	white_mw029.bmp	0	5	6.165385	14446.075249
012	1	1	16	16	black_mb077.bmp	1	5	5.060172	14452.356378
012	1	1	17	17	black_mb078.bmp	1	7	4.006572	14457.537895
012	1	1	18	18	white_mw067.bmp	0	7	2.635654	14461.653117
012	1	1	19	19	other_00763_941201_fb_edt.bmp	2	8	3.246317	14464.402157
012	1	1	20	20	black_mb049.bmp	1	3	7.800553	14467.767634
012	1	1	21	21	other_00859_940307_fa_edt.bmp	2	8	4.550494	14475.681537
012	1	1	22	22	black_mb044.bmp	1	4	11.557293	14480.346562
012	1	1	23	23	other_00726_941201_fb_edt.bmp	2	2	4.109994	14492.025798
012	1	1	24	24	black_mb046.bmp	1	4	3.590124	14496.257635
012	1	1	25	25	white_mw063.bmp	0	1	7.979241	14499.956345
012	1	1	26	26	white_mw072.bmp	0	7	3.065989	14508.053504
012	1	1	27	27	white_mw046.bmp	0	6	3.459575	14511.235720
012	1	1	28	28	white_mw074.bmp	0	6	3.397487	14514.817798
012	1	1	29	29	other_00926_960627_fa_edt.bmp	2	5	3.689961	14518.333218
012	1	1	30	30	other_00933_960627_fa_edt.bmp	2	8	4.971154	14522.131898
012	1	1	31	31	white_mw034.bmp	0	7	2.417596	14527.213450
012	1	1	32	32	white_mw044.bmp	0	7	2.117080	14529.745895
012	1	1	33	33	other_00623_940928_fb_edt.bmp	2	6	2.580521	14531.978445
012	1	1	34	34	white_mw048.bmp	0	4	5.161232	14534.677495
012	1	1	35	35	white_mw051.bmp	0	6	5.319694	14539.958965
012	1	1	36	36	other_00629_940928_fa_edt.bmp	2	8	3.824203	14545.390409
012	1	1	37	37	black_mb056.bmp	1	4	3.636229	14549.322349
012	1	1	38	38	white_mw098.bmp	0	3	3.863373	14553.071041
012	1	1	39	39	black_mb045.bmp	1	4	2.193415	14557.052981
012	1	1	40	40	other_00734_941201_fa_edt.bmp	2	6	2.293520	14559.368845
012	1	1	41	41	black_mb079.bmp	1	4	4.269633	14561.784681
012	1	1	42	42	black_mb040.bmp	1	6	3.335678	14566.166477
012	1	1	43	43	black_mb088.bmp	1	4	2.254856	14569.615243
012	1	1	44	44	black_mb038.bmp	1	6	3.904856	14571.981064
012	1	1	45	45	white_mw095.bmp	0	6	3.129650	14575.996324
012	1	1	46	46	white_mw084.bmp	0	7	1.784685	14579.245216
012	1	1	47	47	black_mb089.bmp	1	7	2.069344	14581.144537
012	1	1	48	48	white_mw047.bmp	0	6	3.870669	14583.327097
012	1	1	49	49	white_mw071.bmp	0	5	4.720663	14587.309034
012	1	1	50	50	white_mw089.bmp	0	4	4.897137	14592.140701
012	1	1	51	51	white_mw040.bmp	0	5	3.585931	14597.155581
012	1	1	52	52	other_00810_941205_fb_edt_rot.bmp	2	5	2.767171	14600.854269
012	1	1	53	53	other_00668_941121_fa_edt.bmp	2	7	2.692724	14603.736624
012	1	1	54	54	white_mw078.bmp	0	5	5.109067	14606.552287
012	1	1	55	55	white_mw085.bmp	0	3	4.333399	14611.783782
012	1	1	56	56	black_mb042.bmp	1	4	2.948935	14616.232220
012	1	1	57	57	other_00621_941121_fa_edt.bmp	2	5	4.635175	14619.297820
012	1	1	58	58	other_00869_940307_fa_edt.bmp	2	4	5.766681	14624.046144
012	1	1	59	59	white_mw075.bmp	0	3	3.309397	14629.927417
012	1	1	60	60	black_mb066.bmp	1	3	2.093160	14633.359557
012	1	1	61	61	black_mb092.bmp	1	2	4.493106	14635.575438
012	1	1	62	62	other_00652_941031_fb_edt.bmp	2	6	2.838066	14640.190465
012	1	1	63	63	black_mb064.bmp	1	7	2.017110	14643.139448
012	1	1	64	64	white_mw033.bmp	0	7	1.964501	14645.272029
012	1	1	65	65	black_mb060.bmp	1	6	3.121660	14647.354639
012	1	1	66	66	black_mb062.bmp	1	5	2.177405	14650.586837
012	1	1	67	67	white_mw042.bmp	0	6	5.694209	14652.886012
012	1	1	68	68	black_mb059.bmp	1	5	4.327320	14658.700672
012	1	1	69	69	black_mb039.bmp	1	6	4.286882	14663.149110
012	1	2	01	70	other_00656_941121_fb_edt.bmp	2	6	5.064664	14673.579162
012	1	2	02	71	other_00841_940307_fb_edt.bmp	2	4	2.211433	14678.760278
012	1	2	03	72	black_mb055.bmp	1	4	3.142828	14681.092785
012	1	2	04	73	black_mb096.bmp	1	4	2.229348	14684.358318
012	1	2	05	74	white_mw099.bmp	0	4	2.432054	14686.707494
012	1	2	06	75	white_mw091.bmp	0	7	2.962883	14689.256606
012	1	2	07	76	white_mw053.bmp	0	8	2.464652	14692.338851
012	1	2	08	77	white_mw041.bmp	0	4	3.362117	14694.921273
012	1	2	09	78	white_mw043.bmp	0	5	2.087968	14698.403372
012	1	2	10	79	black_mb069.bmp	1	3	3.424528	14700.602605
012	1	2	11	80	white_mw066.bmp	0	8	9.324331	14704.134699
012	1	2	12	81	black_mb081.bmp	1	6	6.125485	14713.581404
012	1	2	13	82	black_mb083.bmp	1	5	1.933657	14719.829198
012	1	2	14	83	white_mw068.bmp	0	5	3.364267	14721.878501
012	1	2	15	84	other_00921_960627_fb_edt.bmp	2	6	1.658198	14725.360589
012	1	2	16	85	other_00793_941205_fb_edt.bmp	2	6	3.596046	14727.126634
012	1	2	17	86	black_mb097.bmp	1	6	2.856639	14730.842014
012	1	2	18	87	black_mb073.bmp	1	6	2.298872	14733.807609
012	1	2	19	88	other_00976_960627_fb_edt.bmp	2	4	3.946989	14736.223454
012	1	2	20	89	white_mw049.bmp	0	7	4.297646	14740.288697
012	1	2	21	90	black_mb070.bmp	1	6	2.874458	14744.703811
012	1	2	22	91	black_mb050.bmp	1	7	2.140113	14747.686100
012	1	2	23	92	other_01207_940128_fb_edt.bmp	2	5	4.642802	14749.935299
012	1	2	24	93	white_mw057.bmp	0	3	3.133805	14754.700308
012	1	2	25	94	black_mb063.bmp	1	4	2.340783	14757.949166
012	1	2	26	95	black_mb067.bmp	1	5	7.611438	14760.398310
012	1	2	27	96	white_mw052.bmp	0	6	2.664861	14768.128915
012	1	2	28	97	other_00672_941121_fa_edt.bmp	2	5	3.690405	14770.911287
012	1	2	29	98	other_00625_940928_fb_edt.bmp	2	8	3.323665	14774.709953
012	1	2	30	99	other_00866_940307_fa_edt.bmp	2	6	2.355337	14778.142097
012	1	2	31	100	black_mb051.bmp	1	4	3.841515	14780.607884
012	1	2	32	101	white_mw070.bmp	0	5	2.436926	14784.556485
012	1	2	33	102	black_mb047.bmp	1	6	3.359762	14787.105590
012	1	2	34	103	other_00698_941121_fb_edt.bmp	2	8	3.677573	14790.587706
012	1	2	35	104	other_00733_941201_fa_edt.bmp	2	6	2.990731	14794.386382
012	1	2	36	105	black_mb100.bmp	1	5	2.828122	14797.485288
012	1	2	37	106	white_mw060.bmp	0	2	4.430763	14800.434260
012	1	2	38	107	white_mw082.bmp	0	7	3.674885	14804.982666
012	1	2	39	108	other_00880_960530_fa_edt.bmp	2	8	2.059545	14808.781313
012	1	2	40	109	other_00911_960530_fa_edt.bmp	2	9	3.372825	14810.963894
012	1	2	41	110	other_00740_941205_fa_edt.bmp	2	5	3.994792	14814.446008
012	1	2	42	111	white_mw035.bmp	0	4	3.743329	14818.561247
012	1	2	43	112	black_mb061.bmp	1	5	2.766001	14822.426543
012	1	2	44	113	other_00737_941201_fa_edt.bmp	2	6	4.491582	14825.308855
012	1	2	45	114	other_00622_940928_fb_edt.bmp	2	3	9.341634	14829.907247
012	1	2	46	115	white_mw092.bmp	0	3	3.101630	14839.370603
012	1	2	47	116	other_00828_940307_fa_edt.bmp	2	5	2.950000	14842.586138
012	1	2	48	117	white_mw077.bmp	0	4	3.004433	14845.651718
012	1	2	49	118	black_mb099.bmp	1	5	2.600611	14848.767304
012	1	2	50	119	other_00673_941121_fa_edt_rot.bmp	2	7	3.396870	14851.483016
012	1	2	51	120	white_mw073.bmp	0	4	2.729397	14854.998450
012	1	2	52	121	other_00712_941205_fa_edt.bmp	2	6	5.880290	14857.847466
012	1	2	53	122	white_mw065.bmp	0	4	4.130194	14863.845354
012	1	2	54	123	black_mb098.bmp	1	4	3.289737	14868.093859
012	1	2	55	124	other_00797_941205_fb_edt.bmp	2	5	3.106768	14871.492690
012	1	2	56	125	other_00710_960530_fa_edt.bmp	2	8	3.563119	14874.708221
012	1	2	57	126	white_mw080.bmp	0	4	3.441019	14878.390263
012	1	2	58	127	black_mb075.bmp	1	3	4.788310	14881.939008
012	1	2	59	128	black_mb068.bmp	1	3	1.873801	14886.837299
012	1	2	60	129	other_00724_941201_fa_edt.bmp	2	6	2.539110	14888.819937
012	1	2	61	130	black_mb071.bmp	1	6	4.178082	14891.469008
012	1	2	62	131	black_mb072.bmp	1	5	4.023681	14895.767514
012	1	2	63	132	black_mb094.bmp	1	3	2.851771	14899.899372
012	1	2	64	133	other_00912_960530_fa_edt.bmp	2	2	4.709795	14902.865007
012	1	2	65	134	other_00666_941121_fa_edt_rot.bmp	2	1	4.206046	14907.696644
012	1	2	66	135	other_00795_941205_fb_edt.bmp	2	4	3.522803	14912.011800
012	1	2	67	136	black_mb057.bmp	1	3	5.066689	14915.643859
012	1	2	68	137	white_mw096.bmp	0	4	3.852971	14920.825384
012	1	2	69	138	white_mw039.bmp	0	7	4.063730	14924.790650
