SUBJECT ID	CONDITION	BLOCK	TRIAL NUM	CUMULATIVE TRIAL NUM	STIM	INK	MASK	STIM RACE	RESPONSE	RT	START TIME
012	0	80	01	01	black_00108_940128_fb_edt.bmp	pd_sm_inkblot_170816_1750_004.png	pdPL_noiseMask_170814_1952_041.png	1	0	3.012716	2039.940102
012	0	80	02	02	white_mw018.bmp	pd_sm_inkblot_170816_1750_096.png	pdPL_noiseMask_170814_1952_091.png	0	1	1.196257	2043.372256
012	0	80	03	03	other_00617_940928_fb_edt.bmp	pd_sm_inkblot_170816_1750_001.png	pdPL_noiseMask_170814_1952_023.png	2	0	1.161166	2044.871730
012	0	1	01	01	white_mw003.bmp	pd_sm_inkblot_170816_1750_071.png	pdPL_noiseMask_170814_1952_000.png	0	0	1.724628	2058.483771
012	0	1	02	02	other_00029_940128_fa_edt.bmp	pd_sm_inkblot_170816_1750_065.png	pdPL_noiseMask_170814_1952_031.png	2	0	1.023198	2060.433097
012	0	1	03	03	other_00618_940928_fb_edt.bmp	pd_sm_inkblot_170816_1750_046.png	pdPL_noiseMask_170814_1952_026.png	2	0	1.677693	2061.682655
012	0	1	04	04	other_00601_940928_fb_edt.bmp	pd_sm_inkblot_170816_1750_023.png	pdPL_noiseMask_170814_1952_043.png	2	0	1.081660	2063.598667
012	0	1	05	05	white_mw001.bmp	pd_sm_inkblot_170816_1750_056.png	pdPL_noiseMask_170814_1952_033.png	0	1	0.893291	2064.914973
012	0	1	06	06	other_00116_931230_fa_edt.bmp	pd_sm_inkblot_170816_1750_006.png	pdPL_noiseMask_170814_1952_025.png	2	1	1.096601	2066.047821
012	0	1	07	07	black_mb006.bmp	pd_sm_inkblot_170816_1750_099.png	pdPL_noiseMask_170814_1952_001.png	1	1	0.707649	2067.380698
012	0	1	08	08	other_00616_940928_fa_edt_rot.bmp	pd_sm_inkblot_170816_1750_041.png	pdPL_noiseMask_170814_1952_008.png	2	1	1.086561	2068.313713
012	0	1	09	09	other_00545_940519_fa_edt.bmp	pd_sm_inkblot_170816_1750_076.png	pdPL_noiseMask_170814_1952_030.png	2	0	1.026314	2069.629931
012	0	1	10	10	other_00383_941031_fa_edt_rot.bmp	pd_sm_inkblot_170816_1750_025.png	pdPL_noiseMask_170814_1952_084.png	2	0	1.536692	2070.879521
012	0	1	11	11	black_mb003.bmp	pd_sm_inkblot_170816_1750_088.png	pdPL_noiseMask_170814_1952_076.png	1	1	0.723162	2072.645582
012	0	1	12	12	black_mb025.bmp	pd_sm_inkblot_170816_1750_027.png	pdPL_noiseMask_170814_1952_033.png	1	1	2.772957	2073.595258
012	0	1	13	13	white_00785_941205_fb_edt.bmp	pd_sm_inkblot_170816_1750_057.png	pdPL_noiseMask_170814_1952_025.png	0	1	0.846179	2076.594217
012	0	1	14	14	black_mb031.bmp	pd_sm_inkblot_170816_1750_034.png	pdPL_noiseMask_170814_1952_005.png	1	1	0.762967	2077.677187
012	0	1	15	15	black_mb016.bmp	pd_sm_inkblot_170816_1750_094.png	pdPL_noiseMask_170814_1952_082.png	1	1	0.699257	2078.676855
012	0	1	16	16	other_00114_931230_fa_edt.bmp	pd_sm_inkblot_170816_1750_070.png	pdPL_noiseMask_170814_1952_078.png	2	0	1.726263	2079.609869
012	0	1	17	17	black_00467_940519_fb_edt.bmp	pd_sm_inkblot_170816_1750_033.png	pdPL_noiseMask_170814_1952_077.png	1	0	0.816850	2081.559209
012	0	1	18	18	white_00519_940519_fb_edt.bmp	pd_sm_inkblot_170816_1750_082.png	pdPL_noiseMask_170814_1952_096.png	0	1	1.495219	2082.608846
012	0	1	19	19	other_00610_940928_fa_edt.bmp	pd_sm_inkblot_170816_1750_060.png	pdPL_noiseMask_170814_1952_001.png	2	1	0.771160	2084.324926
012	0	1	20	20	other_00178_931230_fa_edt.bmp	pd_sm_inkblot_170816_1750_054.png	pdPL_noiseMask_170814_1952_049.png	2	0	0.915504	2085.324569
012	0	1	21	21	white_mw022.bmp	pd_sm_inkblot_170816_1750_010.png	pdPL_noiseMask_170814_1952_071.png	0	1	0.725777	2086.474192
012	0	1	22	22	white_00766_941201_fb_edt.bmp	pd_sm_inkblot_170816_1750_019.png	pdPL_noiseMask_170814_1952_007.png	0	0	1.536028	2087.423868
012	0	1	23	23	black_39M_NE_C.bmp	pd_sm_inkblot_170816_1750_075.png	pdPL_noiseMask_170814_1952_030.png	1	0	0.784106	2089.239916
012	0	1	24	24	black_00716_941201_fa_edt_rot.bmp	pd_sm_inkblot_170816_1750_082.png	pdPL_noiseMask_170814_1952_043.png	1	0	0.759775	2090.256233
012	0	1	25	25	white_mw004.bmp	pd_sm_inkblot_170816_1750_006.png	pdPL_noiseMask_170814_1952_021.png	0	0	0.688735	2091.239232
012	0	1	26	26	white_mw028.bmp	pd_sm_inkblot_170816_1750_028.png	pdPL_noiseMask_170814_1952_026.png	0	0	2.036367	2092.155586
012	0	1	27	27	white_00757_941201_fa_edt.bmp	pd_sm_inkblot_170816_1750_094.png	pdPL_noiseMask_170814_1952_036.png	0	1	0.682510	2094.421479
012	0	1	28	28	black_mb026.bmp	pd_sm_inkblot_170816_1750_065.png	pdPL_noiseMask_170814_1952_049.png	1	1	0.766130	2095.337844
012	0	1	29	29	black_00558_940519_fa_edt.bmp	pd_sm_inkblot_170816_1750_030.png	pdPL_noiseMask_170814_1952_084.png	1	0	0.958250	2096.337490
012	0	1	30	30	white_00341_940422_fa_edt.bmp	pd_sm_inkblot_170816_1750_033.png	pdPL_noiseMask_170814_1952_049.png	0	1	0.991355	2097.520419
012	0	2	01	31	white_00253_940128_fa_edt.bmp	pd_sm_inkblot_170816_1750_073.png	pdPL_noiseMask_170814_1952_005.png	0	0	3.191115	2104.784605
012	0	2	02	32	black_00857_940307_fa_edt.bmp	pd_sm_inkblot_170816_1750_062.png	pdPL_noiseMask_170814_1952_088.png	1	1	4.135529	2108.200110
012	0	2	03	33	white_mw012.bmp	pd_sm_inkblot_170816_1750_039.png	pdPL_noiseMask_170814_1952_090.png	0	1	1.562372	2112.565282
012	0	2	04	34	black_mb019.bmp	pd_sm_inkblot_170816_1750_071.png	pdPL_noiseMask_170814_1952_087.png	1	1	0.858873	2114.364672
012	0	2	05	35	other_00205_940128_fa_edt.bmp	pd_sm_inkblot_170816_1750_084.png	pdPL_noiseMask_170814_1952_062.png	2	1	0.568059	2115.447631
012	0	2	06	36	black_mb010.bmp	pd_sm_inkblot_170816_1750_074.png	pdPL_noiseMask_170814_1952_038.png	1	1	1.496262	2116.247357
012	0	2	07	37	other_00587_940928_fa_edt.bmp	pd_sm_inkblot_170816_1750_055.png	pdPL_noiseMask_170814_1952_099.png	2	0	1.251540	2117.980084
012	0	2	08	38	other_00193_940128_fa_edt.bmp	pd_sm_inkblot_170816_1750_069.png	pdPL_noiseMask_170814_1952_090.png	2	1	1.208801	2119.462926
012	0	2	09	39	other_00516_940519_fb_edt.bmp	pd_sm_inkblot_170816_1750_079.png	pdPL_noiseMask_170814_1952_019.png	2	1	0.879797	2120.895769
012	0	2	10	40	other_00583_940928_fa_edt.bmp	pd_sm_inkblot_170816_1750_063.png	pdPL_noiseMask_170814_1952_011.png	2	1	1.051419	2122.012053
012	0	2	11	41	other_00246_940128_fa_edt.bmp	pd_sm_inkblot_170816_1750_094.png	pdPL_noiseMask_170814_1952_072.png	2	1	0.624581	2123.294953
012	0	2	12	42	other_00216_940128_fa_edt.bmp	pd_sm_inkblot_170816_1750_031.png	pdPL_noiseMask_170814_1952_087.png	2	1	1.742850	2124.144660
012	0	2	13	43	black_00929_960627_fa_edt.bmp	pd_sm_inkblot_170816_1750_055.png	pdPL_noiseMask_170814_1952_035.png	1	0	1.128893	2126.110654
012	0	2	14	44	black_00917_960620_fa_edt.bmp	pd_sm_inkblot_170816_1750_025.png	pdPL_noiseMask_170814_1952_029.png	1	1	1.202917	2127.476855
012	0	2	15	45	white_mw016.bmp	pd_sm_inkblot_170816_1750_034.png	pdPL_noiseMask_170814_1952_079.png	0	0	0.777809	2128.909701
012	0	2	16	46	black_00257_940128_fa_edt.bmp	pd_sm_inkblot_170816_1750_056.png	pdPL_noiseMask_170814_1952_007.png	1	1	0.826099	2129.909360
012	0	2	17	47	other_00058_931230_fa_edt.bmp	pd_sm_inkblot_170816_1750_050.png	pdPL_noiseMask_170814_1952_071.png	2	0	1.080596	2130.959000
012	0	2	18	48	white_00761_941201_fb_edt.bmp	pd_sm_inkblot_170816_1750_069.png	pdPL_noiseMask_170814_1952_019.png	0	1	2.188263	2132.275219
012	0	2	19	49	black_00801_941205_fa_edt.bmp	pd_sm_inkblot_170816_1750_021.png	pdPL_noiseMask_170814_1952_070.png	1	1	1.124402	2134.691062
012	0	2	20	50	other_00122_931230_fa_edt.bmp	pd_sm_inkblot_170816_1750_064.png	pdPL_noiseMask_170814_1952_028.png	2	0	0.878769	2136.040598
012	0	2	21	51	white_00223_940128_fb_edt.bmp	pd_sm_inkblot_170816_1750_075.png	pdPL_noiseMask_170814_1952_084.png	0	0	1.131107	2137.140224
012	0	2	22	52	white_mw024.bmp	pd_sm_inkblot_170816_1750_008.png	pdPL_noiseMask_170814_1952_035.png	0	0	0.716963	2138.506422
012	0	2	23	53	white_mw015.bmp	pd_sm_inkblot_170816_1750_016.png	pdPL_noiseMask_170814_1952_042.png	0	0	2.007197	2139.456108
012	0	2	24	54	white_00050_931230_fa_edt.bmp	pd_sm_inkblot_170816_1750_079.png	pdPL_noiseMask_170814_1952_082.png	0	0	0.884860	2141.690441
012	0	2	25	55	white_00120_931230_fa_edt.bmp	pd_sm_inkblot_170816_1750_025.png	pdPL_noiseMask_170814_1952_001.png	0	0	1.682339	2142.804954
012	0	2	26	56	black_mb020.bmp	pd_sm_inkblot_170816_1750_054.png	pdPL_noiseMask_170814_1952_099.png	1	1	1.262335	2144.720966
012	0	2	27	57	black_00586_940928_fa_edt.bmp	pd_sm_inkblot_170816_1750_016.png	pdPL_noiseMask_170814_1952_040.png	1	1	1.442863	2146.220453
012	0	2	28	58	other_00415_940422_fb_edt_rot.bmp	pd_sm_inkblot_170816_1750_071.png	pdPL_noiseMask_170814_1952_063.png	2	0	0.880653	2147.886541
012	0	2	29	59	white_00816_941205_fa_edt.bmp	pd_sm_inkblot_170816_1750_046.png	pdPL_noiseMask_170814_1952_043.png	0	1	1.916382	2149.002838
012	0	2	30	60	black_mb027.bmp	pd_sm_inkblot_170816_1750_097.png	pdPL_noiseMask_170814_1952_062.png	1	1	2.127111	2151.152102
012	0	3	01	61	black_00746_941201_fb_edt.bmp	pd_sm_inkblot_170816_1750_031.png	pdPL_noiseMask_170814_1952_021.png	1	0	3.841849	2159.549233
012	0	3	02	62	other_00318_940422_fb_edt.bmp	pd_sm_inkblot_170816_1750_088.png	pdPL_noiseMask_170814_1952_029.png	2	0	0.872488	2163.614516
012	0	3	03	63	white_mw013.bmp	pd_sm_inkblot_170816_1750_024.png	pdPL_noiseMask_170814_1952_031.png	0	0	0.804890	2164.714127
012	0	3	04	64	other_00596_940928_fa_edt.bmp	pd_sm_inkblot_170816_1750_062.png	pdPL_noiseMask_170814_1952_055.png	2	0	0.699891	2165.747102
012	0	3	05	65	white_00658_941121_fb_edt.bmp	pd_sm_inkblot_170816_1750_055.png	pdPL_noiseMask_170814_1952_038.png	0	1	0.958897	2166.680117
012	0	3	06	66	white_00577_940928_fa_edt.bmp	pd_sm_inkblot_170816_1750_013.png	pdPL_noiseMask_170814_1952_011.png	0	1	1.071904	2167.863052
012	0	3	07	67	black_00332_940422_fa_edt_contrast.bmp	pd_sm_inkblot_170816_1750_014.png	pdPL_noiseMask_170814_1952_025.png	1	1	0.972368	2169.162618
012	0	3	08	68	black_mb029.bmp	pd_sm_inkblot_170816_1750_069.png	pdPL_noiseMask_170814_1952_045.png	1	1	0.892798	2170.362194
012	0	3	09	69	black_00358_940422_fb_edt.bmp	pd_sm_inkblot_170816_1750_028.png	pdPL_noiseMask_170814_1952_074.png	1	1	0.968454	2171.478508
012	0	3	10	70	white_00199_940128_fa_edt.bmp	pd_sm_inkblot_170816_1750_030.png	pdPL_noiseMask_170814_1952_050.png	0	1	1.392778	2172.678082
012	0	3	11	71	black_mb035.bmp	pd_sm_inkblot_170816_1750_039.png	pdPL_noiseMask_170814_1952_090.png	1	0	0.920747	2174.294198
012	0	3	12	72	white_00248_940128_fa_edt.bmp	pd_sm_inkblot_170816_1750_070.png	pdPL_noiseMask_170814_1952_074.png	0	0	0.819103	2175.443807
012	0	3	13	73	other_00261_940128_fb_edt.bmp	pd_sm_inkblot_170816_1750_033.png	pdPL_noiseMask_170814_1952_077.png	2	1	4.321444	2176.493433
012	0	3	14	74	other_00566_940928_fb_edt.bmp	pd_sm_inkblot_170816_1750_035.png	pdPL_noiseMask_170814_1952_047.png	2	0	0.980902	2181.041880
012	0	3	15	75	other_00096_940128_fb_edt.bmp	pd_sm_inkblot_170816_1750_082.png	pdPL_noiseMask_170814_1952_000.png	2	0	2.348662	2182.258147
012	0	3	16	76	other_00139_931230_fb_edt.bmp	pd_sm_inkblot_170816_1750_028.png	pdPL_noiseMask_170814_1952_074.png	2	0	0.630229	2184.840595
012	0	3	17	77	white_mw010.bmp	pd_sm_inkblot_170816_1750_074.png	pdPL_noiseMask_170814_1952_063.png	0	0	0.691849	2185.706943
012	0	3	18	78	white_00597_940928_fb_edt.bmp	pd_sm_inkblot_170816_1750_097.png	pdPL_noiseMask_170814_1952_029.png	0	0	1.151333	2186.623319
012	0	3	19	79	black_mb030.bmp	pd_sm_inkblot_170816_1750_050.png	pdPL_noiseMask_170814_1952_017.png	1	0	1.256531	2188.006170
012	0	3	20	80	other_00584_940928_fa_edt.bmp	pd_sm_inkblot_170816_1750_066.png	pdPL_noiseMask_170814_1952_038.png	2	0	1.509642	2189.489012
012	0	3	21	81	black_00453_940422_fb_edt.bmp	pd_sm_inkblot_170816_1750_046.png	pdPL_noiseMask_170814_1952_092.png	1	0	1.512993	2191.221749
012	0	3	22	82	other_00461_940422_fb_edt.bmp	pd_sm_inkblot_170816_1750_039.png	pdPL_noiseMask_170814_1952_042.png	2	0	1.107525	2192.971167
012	0	3	23	83	white_mw006.bmp	pd_sm_inkblot_170816_1750_064.png	pdPL_noiseMask_170814_1952_078.png	0	0	0.878748	2194.304032
012	0	3	24	84	black_mb013.bmp	pd_sm_inkblot_170816_1750_057.png	pdPL_noiseMask_170814_1952_031.png	1	1	1.082968	2195.403655
012	0	3	25	85	other_00611_940928_fa_edt_rot.bmp	pd_sm_inkblot_170816_1750_075.png	pdPL_noiseMask_170814_1952_005.png	2	0	0.822801	2196.719871
012	0	3	26	86	other_00619_940928_fa_edt.bmp	pd_sm_inkblot_170816_1750_091.png	pdPL_noiseMask_170814_1952_024.png	2	1	2.421167	2197.769499
012	0	3	27	87	black_mb008.bmp	pd_sm_inkblot_170816_1750_023.png	pdPL_noiseMask_170814_1952_028.png	1	1	1.364002	2200.418596
012	0	3	28	88	white_mw008.bmp	pd_sm_inkblot_170816_1750_023.png	pdPL_noiseMask_170814_1952_055.png	0	1	2.980544	2202.018063
012	0	3	29	89	white_00659_941121_fa_edt.bmp	pd_sm_inkblot_170816_1750_060.png	pdPL_noiseMask_170814_1952_092.png	0	1	0.661258	2205.233636
012	0	3	30	90	black_00488_940519_fb_edt.bmp	pd_sm_inkblot_170816_1750_041.png	pdPL_noiseMask_170814_1952_036.png	1	1	1.681803	2206.116663
012	0	4	01	91	other_00582_940928_fb_edt.bmp	pd_sm_inkblot_170816_1750_057.png	pdPL_noiseMask_170814_1952_017.png	2	1	1.654393	2214.063948
012	0	4	02	92	black_mb023.bmp	pd_sm_inkblot_170816_1750_084.png	pdPL_noiseMask_170814_1952_079.png	1	0	0.819655	2215.946640
012	0	4	03	93	white_00898_960530_fa_edt.bmp	pd_sm_inkblot_170816_1750_065.png	pdPL_noiseMask_170814_1952_088.png	0	1	0.890126	2216.996267
012	0	4	04	94	black_00531_940519_fa_edt.bmp	pd_sm_inkblot_170816_1750_064.png	pdPL_noiseMask_170814_1952_024.png	1	0	0.709770	2218.112566
012	0	4	05	95	white_00897_960530_fb_edt.bmp	pd_sm_inkblot_170816_1750_076.png	pdPL_noiseMask_170814_1952_097.png	0	0	0.832775	2219.045595
012	0	4	06	96	black_mb021.bmp	pd_sm_inkblot_170816_1750_066.png	pdPL_noiseMask_170814_1952_026.png	1	1	0.982467	2220.111884
012	0	4	07	97	other_00578_940928_fa_edt.bmp	pd_sm_inkblot_170816_1750_030.png	pdPL_noiseMask_170814_1952_097.png	2	1	0.742227	2221.328136
012	0	4	08	98	white_00591_940928_fa_edt.bmp	pd_sm_inkblot_170816_1750_027.png	pdPL_noiseMask_170814_1952_047.png	0	1	1.159849	2222.294463
012	0	4	09	99	black_mb018.bmp	pd_sm_inkblot_170816_1750_035.png	pdPL_noiseMask_170814_1952_008.png	1	1	0.936967	2223.677332
012	0	4	10	100	black_mb001.bmp	pd_sm_inkblot_170816_1750_091.png	pdPL_noiseMask_170814_1952_061.png	1	1	0.826747	2224.843586
012	0	4	11	101	black_mb009.bmp	pd_sm_inkblot_170816_1750_010.png	pdPL_noiseMask_170814_1952_055.png	1	0	0.912983	2225.893243
012	0	4	12	102	black_mb015.bmp	pd_sm_inkblot_170816_1750_007.png	pdPL_noiseMask_170814_1952_000.png	1	0	1.091378	2227.042836
012	0	4	13	103	other_00110_931230_fb_edt.bmp	pd_sm_inkblot_170816_1750_016.png	pdPL_noiseMask_170814_1952_094.png	2	0	1.983053	2228.359066
012	0	4	14	104	white_00807_941205_fb_edt.bmp	pd_sm_inkblot_170816_1750_099.png	pdPL_noiseMask_170814_1952_048.png	0	0	2.543194	2230.574963
012	0	4	15	105	other_00614_940928_fa_edt.bmp	pd_sm_inkblot_170816_1750_056.png	pdPL_noiseMask_170814_1952_070.png	2	1	1.081497	2233.340703
012	0	4	16	106	white_00283_940422_fa_edt.bmp	pd_sm_inkblot_170816_1750_014.png	pdPL_noiseMask_170814_1952_094.png	0	0	3.125216	2234.656915
012	0	4	17	107	black_mb011.bmp	pd_sm_inkblot_170816_1750_037.png	pdPL_noiseMask_170814_1952_047.png	1	0	3.584311	2238.005772
012	0	4	18	108	white_00972_960627_fa_edt.bmp	pd_sm_inkblot_170816_1750_054.png	pdPL_noiseMask_170814_1952_045.png	0	1	7.160868	2241.821136
012	0	4	19	109	other_00234_940128_fb_edt.bmp	pd_sm_inkblot_170816_1750_074.png	pdPL_noiseMask_170814_1952_050.png	2	0	1.043361	2249.218615
012	0	4	20	110	white_00939_960627_fa_edt.bmp	pd_sm_inkblot_170816_1750_036.png	pdPL_noiseMask_170814_1952_087.png	0	0	0.857179	2250.484841
012	0	4	21	111	other_00070_941121_fb_edt.bmp	pd_sm_inkblot_170816_1750_019.png	pdPL_noiseMask_170814_1952_048.png	2	0	6.806101	2251.567792
012	0	4	22	112	white_mw025.bmp	pd_sm_inkblot_170816_1750_063.png	pdPL_noiseMask_170814_1952_061.png	0	0	0.911183	2258.598741
012	0	4	23	113	other_00046_931230_fa_edt.bmp	pd_sm_inkblot_170816_1750_037.png	pdPL_noiseMask_170814_1952_092.png	2	1	1.162181	2259.731685
012	0	4	24	114	other_00490_940519_fb_edt.bmp	pd_sm_inkblot_170816_1750_034.png	pdPL_noiseMask_170814_1952_036.png	2	1	0.595296	2261.114545
012	0	4	25	115	black_mb014.bmp	pd_sm_inkblot_170816_1750_063.png	pdPL_noiseMask_170814_1952_050.png	1	1	1.682881	2261.930933
012	0	4	26	116	white_00764_941201_fa_edt.bmp	pd_sm_inkblot_170816_1750_041.png	pdPL_noiseMask_170814_1952_008.png	0	1	1.182791	2263.846945
012	0	4	27	117	other_00604_940928_fb_edt.bmp	pd_sm_inkblot_170816_1750_010.png	pdPL_noiseMask_170814_1952_035.png	2	0	0.750798	2265.263129
012	0	4	28	118	black_mb017.bmp	pd_sm_inkblot_170816_1750_019.png	pdPL_noiseMask_170814_1952_063.png	1	0	0.911654	2266.246125
012	0	4	29	119	other_00097_931230_fa_edt.bmp	pd_sm_inkblot_170816_1750_008.png	pdPL_noiseMask_170814_1952_061.png	2	0	0.754708	2267.379072
012	0	4	30	120	white_00299_940422_fa_edt.bmp	pd_sm_inkblot_170816_1750_062.png	pdPL_noiseMask_170814_1952_070.png	0	0	1.091727	2268.362076
012	0	5	01	121	other_00132_931230_fb_edt.bmp	pd_sm_inkblot_170816_1750_027.png	pdPL_noiseMask_170814_1952_096.png	2	0	6.607365	2275.726223
012	0	5	02	122	black_38M_NE_C.bmp	pd_sm_inkblot_170816_1750_076.png	pdPL_noiseMask_170814_1952_019.png	1	0	0.688456	2282.557208
012	0	5	03	123	other_00119_931230_fb_edt.bmp	pd_sm_inkblot_170816_1750_013.png	pdPL_noiseMask_170814_1952_076.png	2	0	0.987916	2283.473576
012	0	5	04	124	other_00247_941121_fb_edt.bmp	pd_sm_inkblot_170816_1750_021.png	pdPL_noiseMask_170814_1952_040.png	2	0	0.779935	2284.689829
012	0	5	05	125	black_00183_940128_fb_edt.bmp	pd_sm_inkblot_170816_1750_024.png	pdPL_noiseMask_170814_1952_042.png	1	0	1.763255	2285.706146
012	0	5	06	126	black_mb004.bmp	pd_sm_inkblot_170816_1750_079.png	pdPL_noiseMask_170814_1952_096.png	1	0	0.620115	2287.705451
012	0	5	07	127	black_mb002.bmp	pd_sm_inkblot_170816_1750_008.png	pdPL_noiseMask_170814_1952_011.png	1	0	0.730341	2288.555173
012	0	5	08	128	other_00282_940422_fb_edt.bmp	pd_sm_inkblot_170816_1750_024.png	pdPL_noiseMask_170814_1952_079.png	2	1	1.243804	2289.521508
012	0	5	09	129	white_00109_931230_fa_edt.bmp	pd_sm_inkblot_170816_1750_031.png	pdPL_noiseMask_170814_1952_076.png	0	0	3.121689	2290.987661
012	0	5	10	130	white_00602_940928_fb_edt.bmp	pd_sm_inkblot_170816_1750_084.png	pdPL_noiseMask_170814_1952_062.png	0	1	2.052821	2294.336532
012	0	5	11	131	other_00588_940928_fa_edt.bmp	pd_sm_inkblot_170816_1750_099.png	pdPL_noiseMask_170814_1952_082.png	2	0	2.882293	2296.619091
012	0	5	12	132	other_00237_940128_fb_edt.bmp	pd_sm_inkblot_170816_1750_007.png	pdPL_noiseMask_170814_1952_021.png	2	0	0.662691	2299.734690
012	0	5	13	133	other_00580_940928_fa_edt.bmp	pd_sm_inkblot_170816_1750_014.png	pdPL_noiseMask_170814_1952_033.png	2	0	0.891023	2300.634381
012	0	5	14	134	black_mb032.bmp	pd_sm_inkblot_170816_1750_013.png	pdPL_noiseMask_170814_1952_072.png	1	0	0.702597	2301.750665
012	0	5	15	135	white_00340_940422_fa_edt.bmp	pd_sm_inkblot_170816_1750_088.png	pdPL_noiseMask_170814_1952_099.png	0	0	1.097602	2302.683683
012	0	5	16	136	white_mw002.bmp	pd_sm_inkblot_170816_1750_021.png	pdPL_noiseMask_170814_1952_077.png	0	0	1.365006	2304.016562
012	0	5	17	137	black_00677_941121_fa_edt.bmp	pd_sm_inkblot_170816_1750_006.png	pdPL_noiseMask_170814_1952_048.png	1	0	0.829312	2305.616023
012	0	5	18	138	black_00273_940422_fa_edt.bmp	pd_sm_inkblot_170816_1750_070.png	pdPL_noiseMask_170814_1952_094.png	1	0	1.106906	2306.682302
012	0	5	19	139	white_00960_960627_fb_edt.bmp	pd_sm_inkblot_170816_1750_050.png	pdPL_noiseMask_170814_1952_024.png	0	1	3.270104	2308.015196
012	0	5	20	140	white_00657_941121_fa_edt.bmp	pd_sm_inkblot_170816_1750_037.png	pdPL_noiseMask_170814_1952_017.png	0	1	1.411090	2311.514004
012	0	5	21	141	black_00964_960627_fb_edt.bmp	pd_sm_inkblot_170816_1750_060.png	pdPL_noiseMask_170814_1952_097.png	1	0	0.850579	2313.146774
012	0	5	22	142	black_mb033.bmp	pd_sm_inkblot_170816_1750_073.png	pdPL_noiseMask_170814_1952_078.png	1	0	0.967352	2314.229732
012	0	5	23	143	white_mw019.bmp	pd_sm_inkblot_170816_1750_066.png	pdPL_noiseMask_170814_1952_040.png	0	1	0.719802	2315.429327
012	0	5	24	144	other_00512_940519_fa_edt.bmp	pd_sm_inkblot_170816_1750_097.png	pdPL_noiseMask_170814_1952_007.png	2	0	1.322177	2316.379004
012	0	5	25	145	black_mb005.bmp	pd_sm_inkblot_170816_1750_036.png	pdPL_noiseMask_170814_1952_071.png	1	0	0.940659	2317.928481
012	0	5	26	146	white_mw009.bmp	pd_sm_inkblot_170816_1750_007.png	pdPL_noiseMask_170814_1952_028.png	0	1	5.990237	2319.094729
012	0	5	27	147	other_00575_940928_fb_edt.bmp	pd_sm_inkblot_170816_1750_036.png	pdPL_noiseMask_170814_1952_088.png	2	0	1.047725	2325.309286
012	0	5	28	148	other_00570_940928_fa_edt.bmp	pd_sm_inkblot_170816_1750_073.png	pdPL_noiseMask_170814_1952_045.png	2	0	0.692914	2326.592169
012	0	5	29	149	white_00129_931230_fb_edt.bmp	pd_sm_inkblot_170816_1750_091.png	pdPL_noiseMask_170814_1952_072.png	0	0	3.800431	2327.508536
012	0	5	30	150	white_00874_940307_fa_edt.bmp	pd_sm_inkblot_170816_1750_035.png	pdPL_noiseMask_170814_1952_030.png	0	0	2.656471	2331.540478
