SUBJECT ID	CONDITION	BLOCK	TRIAL NUM	CUMULATIVE TRIAL NUM	STIM	PARTNER RACE	RESPONSE	RT	START TIME
032	2	1	01	01	white_mw063.bmp	0	6	11.880899	6412.086453
032	2	1	02	02	black_mb042.bmp	1	4	2.389196	6424.082221
032	2	1	03	03	black_mb059.bmp	1	6	1.761953	6426.581357
032	2	1	04	04	black_mb098.bmp	1	3	2.199319	6428.464026
032	2	1	05	05	black_mb069.bmp	1	4	3.731290	6430.779974
032	2	1	06	06	black_mb078.bmp	1	9	3.330605	6434.628554
032	2	1	07	07	other_00734_941201_fa_edt.bmp	2	6	3.993771	6438.077366
032	2	1	08	08	black_mb038.bmp	1	4	2.086734	6442.192595
032	2	1	09	09	other_00652_941031_fb_edt.bmp	2	5	3.943082	6444.391848
032	2	1	10	10	black_mb065.bmp	1	3	3.733874	6448.457112
032	2	1	11	11	other_00737_941201_fa_edt.bmp	2	4	3.349340	6452.305807
032	2	1	12	12	black_mb067.bmp	1	6	1.827674	6455.771262
032	2	1	13	13	black_mb060.bmp	1	6	2.246228	6457.720586
032	2	1	14	14	black_mb040.bmp	1	7	2.216505	6460.086436
032	2	1	15	15	other_00673_941121_fa_edt_rot.bmp	2	7	2.443783	6462.418969
032	2	1	16	16	white_mw065.bmp	0	5	2.573877	6464.984769
032	2	1	17	17	black_mb088.bmp	1	3	2.667504	6467.667177
032	2	1	18	18	other_00666_941121_fa_edt_rot.bmp	2	7	3.965134	6470.449529
032	2	1	19	19	black_mb100.bmp	1	4	2.435161	6474.531456
032	2	1	20	20	white_mw035.bmp	0	6	2.390062	6477.080577
032	2	1	21	21	black_mb057.bmp	1	6	2.530727	6479.579736
032	2	1	22	22	white_mw043.bmp	0	6	2.801596	6482.228827
032	2	1	23	23	other_00623_940928_fb_edt.bmp	2	4	3.925875	6485.144464
032	2	1	24	24	black_mb068.bmp	1	4	2.197278	6489.193067
032	2	1	25	25	white_mw071.bmp	0	6	5.937279	6491.508936
032	2	1	26	26	black_mb039.bmp	1	7	2.617396	6497.556837
032	2	1	27	27	white_mw034.bmp	0	7	2.444939	6500.289247
032	2	1	28	28	white_mw046.bmp	0	6	2.599103	6502.855011
032	2	1	29	29	black_mb056.bmp	1	4	1.795225	6505.570776
032	2	1	30	30	black_mb066.bmp	1	5	3.031127	6507.486784
032	2	1	31	31	black_mb099.bmp	1	6	2.810310	6510.635677
032	2	1	32	32	white_mw070.bmp	0	7	3.078291	6513.567999
032	2	1	33	33	black_mb081.bmp	1	7	2.326988	6516.766895
032	2	1	34	34	other_00710_960530_fa_edt.bmp	2	8	2.125775	6519.216051
032	2	1	35	35	black_mb063.bmp	1	4	3.941128	6521.448605
032	2	1	36	36	other_00921_960627_fb_edt.bmp	2	3	5.164513	6525.497219
032	2	1	37	37	other_00724_941201_fa_edt.bmp	2	7	2.106958	6530.778739
032	2	1	38	38	white_mw053.bmp	0	6	2.274986	6532.994656
032	2	1	39	39	other_00866_940307_fa_edt.bmp	2	4	3.308418	6535.377174
032	2	1	40	40	black_mb075.bmp	1	4	5.820792	6538.792636
032	2	1	41	41	white_mw041.bmp	0	6	3.065502	6544.723923
032	2	1	42	42	black_mb051.bmp	1	6	3.563221	6547.906182
032	2	1	43	43	other_00912_960530_fa_edt.bmp	2	7	2.265125	6551.588235
032	2	1	44	44	black_mb072.bmp	1	6	3.090540	6553.970736
032	2	1	45	45	white_mw066.bmp	0	5	3.827606	6557.169633
032	2	1	46	46	other_00656_941121_fb_edt.bmp	2	6	2.958939	6561.118284
032	2	1	47	47	white_mw048.bmp	0	2	4.065267	6564.283869
032	2	1	48	48	other_01207_940128_fb_edt.bmp	2	7	2.859336	6568.465726
032	2	1	49	49	white_mw077.bmp	0	4	4.045669	6571.431364
032	2	1	50	50	other_00797_941205_fb_edt.bmp	2	6	2.496361	6575.596639
032	2	1	51	51	white_mw072.bmp	0	6	3.168599	6578.212380
032	2	1	52	52	white_mw091.bmp	0	4	3.214231	6581.494581
032	2	1	53	53	other_00672_941121_fa_edt.bmp	2	6	2.586091	6584.826765
032	2	1	54	54	white_mw080.bmp	0	7	2.734935	6587.525857
032	2	1	55	55	white_mw044.bmp	0	6	1.981759	6590.374877
032	2	1	56	56	white_mw054.bmp	0	5	3.490551	6592.474133
032	2	1	57	57	white_mw078.bmp	0	6	1.707664	6596.072874
032	2	1	58	58	white_mw039.bmp	0	6	2.643739	6597.888915
032	2	1	59	59	white_mw056.bmp	0	7	2.053923	6600.654663
032	2	1	60	60	black_mb079.bmp	1	7	3.191892	6602.820585
032	2	1	61	61	other_00629_940928_fa_edt.bmp	2	9	4.276926	6606.119438
032	2	1	62	62	other_00859_940307_fa_edt.bmp	2	4	4.014512	6610.517908
032	2	1	63	63	black_mb050.bmp	1	5	2.898539	6614.649843
032	2	1	64	64	other_00621_941121_fa_edt.bmp	2	4	2.066802	6617.665469
032	2	1	65	65	white_mw089.bmp	0	4	4.348213	6619.848033
032	2	1	66	66	other_00933_960627_fa_edt.bmp	2	7	2.011051	6624.313154
032	2	1	67	67	white_mw084.bmp	0	6	2.478436	6626.445752
032	2	1	68	68	black_mb070.bmp	1	5	5.679226	6629.044882
032	2	1	69	69	white_mw075.bmp	0	4	2.465166	6634.842856
032	2	2	01	70	black_mb094.bmp	1	4	11.682913	6643.456763
032	2	2	02	71	black_mb062.bmp	1	6	1.783233	6655.252476
032	2	2	03	72	black_mb064.bmp	1	6	2.859780	6657.151853
032	2	2	04	73	black_mb044.bmp	1	7	1.773525	6660.134167
032	2	2	05	74	white_mw073.bmp	0	7	2.522827	6662.016821
032	2	2	06	75	other_00668_941121_fa_edt.bmp	2	7	2.754403	6664.649253
032	2	2	07	76	black_mb054.bmp	1	5	2.448553	6667.514949
032	2	2	08	77	other_00810_941205_fb_edt_rot.bmp	2	4	2.218776	6670.080717
032	2	2	09	78	other_00793_941205_fb_edt.bmp	2	6	2.798217	6672.413237
032	2	2	10	79	black_mb097.bmp	1	3	4.362489	6675.328893
032	2	2	11	80	black_mb092.bmp	1	8	2.240657	6679.810689
032	2	2	12	81	white_mw092.bmp	0	6	5.595397	6682.159878
032	2	2	13	82	other_00622_940928_fb_edt.bmp	2	7	3.248582	6687.874569
032	2	2	14	83	white_mw099.bmp	0	5	2.483011	6691.240123
032	2	2	15	84	white_mw068.bmp	0	6	4.203852	6693.839185
032	2	2	16	85	other_00828_940307_fa_edt.bmp	2	4	3.440668	6698.154384
032	2	2	17	86	white_mw057.bmp	0	4	7.387698	6701.703128
032	2	2	18	87	black_mb071.bmp	1	4	1.562316	6709.200579
032	2	2	19	88	black_mb045.bmp	1	5	3.151405	6710.883395
032	2	2	20	89	white_mw033.bmp	0	6	3.411221	6714.215500
032	2	2	21	90	white_mw040.bmp	0	6	3.415172	6717.747625
032	2	2	22	91	white_mw047.bmp	0	5	2.251029	6721.279732
032	2	2	23	92	black_mb058.bmp	1	4	1.477057	6723.645597
032	2	2	24	93	black_mb077.bmp	1	8	1.445487	6725.245031
032	2	2	25	94	white_mw082.bmp	0	7	2.479431	6726.811159
032	2	2	26	95	white_mw097.bmp	0	5	4.728249	6729.410242
032	2	2	27	96	black_mb083.bmp	1	4	2.143872	6734.258587
032	2	2	28	97	other_00698_941121_fb_edt.bmp	2	7	2.550037	6736.524454
032	2	2	29	98	white_mw042.bmp	0	1	6.708092	6739.190236
032	2	2	30	99	white_mw029.bmp	0	4	3.468964	6746.021194
032	2	2	31	100	white_mw051.bmp	0	3	3.782929	6749.603312
032	2	2	32	101	white_mw085.bmp	0	7	2.572195	6753.501973
032	2	2	33	102	other_00795_941205_fb_edt.bmp	2	8	2.561768	6756.184342
032	2	2	34	103	other_00809_941205_fa_edt.bmp	2	4	2.431282	6758.866776
032	2	2	35	104	black_mb096.bmp	1	3	3.082179	6761.415888
032	2	2	36	105	other_00740_941205_fa_edt.bmp	2	6	5.083184	6764.614788
032	2	2	37	106	other_00733_941201_fa_edt.bmp	2	4	4.532911	6769.812998
032	2	2	38	107	other_00712_941205_fa_edt.bmp	2	5	3.788320	6774.461389
032	2	2	39	108	white_mw060.bmp	0	4	5.849687	6778.360066
032	2	2	40	109	black_mb049.bmp	1	6	2.485008	6784.324686
032	2	2	41	110	other_00763_941201_fb_edt.bmp	2	5	5.973829	6786.923760
032	2	2	42	111	black_mb046.bmp	1	4	2.460450	6793.004996
032	2	2	43	112	white_mw038.bmp	0	5	5.494006	6795.587440
032	2	2	44	113	other_00880_960530_fa_edt.bmp	2	4	1.679321	6801.202157
032	2	2	45	114	white_mw052.bmp	0	6	1.423869	6803.001550
032	2	2	46	115	white_mw096.bmp	0	7	1.099022	6804.534345
032	2	2	47	116	other_00911_960530_fa_edt.bmp	2	4	2.314678	6805.750603
032	2	2	48	117	black_mb089.bmp	1	6	3.922251	6808.183097
032	2	2	49	118	black_mb061.bmp	1	4	2.578123	6812.215040
032	2	2	50	119	other_00640_941031_fa_edt_rot.bmp	2	5	2.407852	6814.914110
032	2	2	51	120	other_00926_960627_fa_edt.bmp	2	6	1.499266	6817.429896
032	2	2	52	121	white_mw074.bmp	0	1	7.667069	6819.046067
032	2	2	53	122	white_mw049.bmp	0	4	4.510199	6826.826671
032	2	2	54	123	other_00841_940307_fb_edt.bmp	2	6	2.590543	6831.458393
032	2	2	55	124	black_mb093.bmp	1	5	9.123382	6834.157462
032	2	2	56	125	white_mw058.bmp	0	4	1.773110	6843.387630
032	2	2	57	126	white_mw095.bmp	0	6	1.906435	6845.270310
032	2	2	58	127	white_mw098.bmp	0	5	5.618374	6847.286285
032	2	2	59	128	other_00625_940928_fb_edt.bmp	2	4	1.350978	6853.017640
032	2	2	60	129	black_mb073.bmp	1	4	3.308750	6854.483803
032	2	2	61	130	other_00976_960627_fb_edt.bmp	2	6	1.493305	6857.899283
032	2	2	62	131	black_mb082.bmp	1	7	1.117840	6859.498719
032	2	2	63	132	other_00869_940307_fa_edt.bmp	2	4	2.140858	6860.731632
032	2	2	64	133	black_mb047.bmp	1	5	1.451609	6862.980872
032	2	2	65	134	other_00726_941201_fb_edt.bmp	2	6	1.333361	6864.547000
032	2	2	66	135	black_mb055.bmp	1	4	1.403932	6865.996500
032	2	2	67	136	black_mb085.bmp	1	5	2.439727	6867.512646
032	2	2	68	137	white_mw067.bmp	0	8	3.650460	6870.061778
032	2	2	69	138	white_mw076.bmp	0	4	2.173124	6873.827120
