SUBJECT ID	CONDITION	BLOCK	TRIAL NUM	CUMULATIVE TRIAL NUM	STIM	PARTNER RACE	RESPONSE	RT	START TIME
055	1	1	01	01	black_mb057.bmp	1	4	2.456634	3158.921789
055	1	1	02	02	white_mw039.bmp	0	3	3.066615	3161.503905
055	1	1	03	03	other_00809_941205_fa_edt.bmp	2	3	1.692180	3164.686119
055	1	1	04	04	white_mw066.bmp	0	5	1.820150	3166.502132
055	1	1	05	05	black_mb064.bmp	1	5	1.375440	3168.434871
055	1	1	06	06	other_00733_941201_fa_edt.bmp	2	4	1.803916	3169.934236
055	1	1	07	07	white_mw033.bmp	0	4	1.383872	3171.850224
055	1	1	08	08	black_mb068.bmp	1	3	1.412376	3173.349718
055	1	1	09	09	white_mw034.bmp	0	3	1.431472	3174.882485
055	1	1	10	10	white_mw049.bmp	0	5	1.666002	3176.431936
055	1	1	11	11	black_mb040.bmp	1	4	1.475064	3178.214685
055	1	1	12	12	black_mb099.bmp	1	4	1.012447	3179.797410
055	1	1	13	13	white_mw035.bmp	0	4	1.127604	3180.930342
055	1	1	14	14	black_mb073.bmp	1	4	1.573972	3182.179887
055	1	1	15	15	other_00866_940307_fa_edt.bmp	2	3	1.315091	3183.862658
055	1	1	16	16	other_00912_960530_fa_edt.bmp	2	3	1.122315	3185.295463
055	1	1	17	17	white_mw047.bmp	0	3	1.409537	3186.528362
055	1	1	18	18	other_00724_941201_fa_edt.bmp	2	3	1.285171	3188.044471
055	1	1	19	19	black_mb097.bmp	1	3	1.277517	3189.444010
055	1	1	20	20	black_mb066.bmp	1	3	1.182111	3190.843507
055	1	1	21	21	white_mw040.bmp	0	3	1.258483	3192.143040
055	1	1	22	22	black_mb093.bmp	1	4	2.260312	3193.509233
055	1	1	23	23	black_mb065.bmp	1	3	0.925646	3195.891715
055	1	1	24	24	white_mw056.bmp	0	3	1.148770	3196.924680
055	1	1	25	25	white_mw067.bmp	0	3	0.954502	3198.190901
055	1	1	26	26	other_00734_941201_fa_edt.bmp	2	3	1.000158	3199.257185
055	1	1	27	27	black_mb098.bmp	1	3	0.891839	3200.373446
055	1	1	28	28	other_00869_940307_fa_edt.bmp	2	3	0.956219	3201.373106
055	1	1	29	29	other_00625_940928_fb_edt.bmp	2	3	1.161809	3202.439403
055	1	1	30	30	black_mb083.bmp	1	5	4.030846	3203.722312
055	1	1	31	31	black_mb051.bmp	1	3	1.250781	3207.870801
055	1	1	32	32	white_mw091.bmp	0	2	2.276066	3209.236988
055	1	1	33	33	black_mb079.bmp	1	3	1.052857	3211.636137
055	1	1	34	34	white_mw068.bmp	0	2	1.742633	3212.802391
055	1	1	35	35	other_00763_941201_fb_edt.bmp	2	4	2.261443	3214.651720
055	1	1	36	36	other_00623_940928_fb_edt.bmp	2	3	1.542753	3217.034227
055	1	1	37	37	other_00933_960627_fa_edt.bmp	2	3	1.645197	3218.683630
055	1	1	38	38	black_mb062.bmp	1	3	0.799107	3220.449684
055	1	1	39	39	other_00673_941121_fa_edt_rot.bmp	2	2	1.858684	3221.366014
055	1	1	40	40	white_mw042.bmp	0	2	1.748624	3223.332003
055	1	1	41	41	white_mw054.bmp	0	2	1.858731	3225.197998
055	1	1	42	42	white_mw038.bmp	0	2	1.604567	3227.163973
055	1	1	43	43	black_mb077.bmp	1	3	2.152556	3228.880033
055	1	1	44	44	other_00841_940307_fb_edt.bmp	2	2	1.478576	3231.145900
055	1	1	45	45	black_mb085.bmp	1	3	1.391198	3232.745333
055	1	1	46	46	white_mw051.bmp	0	3	2.027725	3234.244800
055	1	1	47	47	other_00828_940307_fa_edt.bmp	2	3	1.534338	3236.394040
055	1	1	48	48	other_00622_940928_fb_edt.bmp	2	3	3.108841	3238.043459
055	1	1	49	49	other_00640_941031_fa_edt_rot.bmp	2	2	1.997313	3241.258984
055	1	1	50	50	white_mw085.bmp	0	2	1.745386	3243.374891
055	1	1	51	51	black_mb060.bmp	1	3	1.303274	3245.240896
055	1	1	52	52	white_mw089.bmp	0	2	1.063176	3246.657058
055	1	1	53	53	other_00668_941121_fa_edt.bmp	2	3	1.256176	3247.839975
055	1	1	54	54	white_mw043.bmp	0	2	4.913886	3249.206170
055	1	1	55	55	white_mw096.bmp	0	2	0.906818	3254.237723
055	1	1	56	56	white_mw098.bmp	0	2	1.121945	3255.254032
055	1	1	57	57	white_mw075.bmp	0	2	3.352957	3256.486925
055	1	1	58	58	other_00652_941031_fb_edt.bmp	2	6	2.119473	3259.952356
055	1	1	59	59	white_mw092.bmp	0	4	1.878886	3262.184914
055	1	1	60	60	black_mb088.bmp	1	3	1.151539	3264.184200
055	1	1	61	61	white_mw078.bmp	0	3	1.485289	3265.450404
055	1	1	62	62	other_00656_941121_fb_edt.bmp	2	3	1.373787	3267.049864
055	1	1	63	63	black_mb089.bmp	1	6	1.803359	3268.532648
055	1	1	64	64	white_mw082.bmp	0	5	1.830816	3270.448635
055	1	1	65	65	black_mb056.bmp	1	4	2.689518	3272.397961
055	1	1	66	66	black_mb061.bmp	1	4	2.898325	3275.196976
055	1	1	67	67	other_00880_960530_fa_edt.bmp	2	4	2.922657	3278.212583
055	1	1	68	68	other_00672_941121_fa_edt.bmp	2	3	2.433850	3281.261489
055	1	1	69	69	white_mw041.bmp	0	2	1.492671	3283.810584
055	1	2	01	70	white_mw099.bmp	0	3	2.645289	3291.458238
055	1	2	02	71	white_mw029.bmp	0	3	1.879434	3294.223554
055	1	2	03	72	other_00926_960627_fa_edt.bmp	2	3	1.152093	3296.222863
055	1	2	04	73	black_mb039.bmp	1	3	1.397772	3297.489082
055	1	2	05	74	black_mb078.bmp	1	4	1.729680	3299.005204
055	1	2	06	75	other_00921_960627_fb_edt.bmp	2	3	3.112225	3300.854537
055	1	2	07	76	white_mw063.bmp	0	3	1.208070	3304.086726
055	1	2	08	77	other_00859_940307_fa_edt.bmp	2	3	1.059764	3305.402950
055	1	2	09	78	black_mb046.bmp	1	5	2.868733	3306.585826
055	1	2	10	79	white_mw053.bmp	0	4	3.630375	3309.568132
055	1	2	11	80	black_mb094.bmp	1	3	1.377678	3313.316810
055	1	2	12	81	black_mb063.bmp	1	3	2.686155	3314.816274
055	1	2	13	82	black_mb054.bmp	1	2	1.519131	3317.615272
055	1	2	14	83	white_mw044.bmp	0	3	2.262788	3319.248039
055	1	2	15	84	other_00629_940928_fa_edt.bmp	2	4	4.127746	3321.630530
055	1	2	16	85	black_mb069.bmp	1	3	1.751124	3325.879023
055	1	2	17	86	black_mb044.bmp	1	3	2.045134	3327.745029
055	1	2	18	87	black_mb047.bmp	1	3	5.015105	3329.910929
055	1	2	19	88	white_mw095.bmp	0	3	2.163705	3335.042453
055	1	2	20	89	white_mw048.bmp	0	2	1.632955	3337.324975
055	1	2	21	90	other_00621_941121_fa_edt.bmp	2	3	1.179490	3339.074353
055	1	2	22	91	other_00726_941201_fb_edt.bmp	2	2	1.695965	3340.373892
055	1	2	23	92	white_mw077.bmp	0	2	5.383849	3342.189903
055	1	2	24	93	black_mb100.bmp	1	2	1.477701	3347.687968
055	1	2	25	94	other_00710_960530_fa_edt.bmp	2	3	1.862071	3349.287402
055	1	2	26	95	black_mb042.bmp	1	2	5.879413	3351.270039
055	1	2	27	96	white_mw052.bmp	0	2	1.145580	3357.267911
055	1	2	28	97	other_00698_941121_fb_edt.bmp	2	5	2.095247	3358.534130
055	1	2	29	98	other_01207_940128_fb_edt.bmp	2	3	1.303226	3360.750011
055	1	2	30	99	black_mb067.bmp	1	2	1.975029	3362.166176
055	1	2	31	100	black_mb071.bmp	1	2	3.860318	3364.248780
055	1	2	32	101	black_mb055.bmp	1	2	1.270315	3368.230744
055	1	2	33	102	black_mb059.bmp	1	3	1.711517	3369.613543
055	1	2	34	103	black_mb049.bmp	1	3	1.302779	3371.446268
055	1	2	35	104	other_00793_941205_fb_edt.bmp	2	3	1.686623	3372.862398
055	1	2	36	105	other_00795_941205_fb_edt.bmp	2	3	2.831358	3374.661758
055	1	2	37	106	black_mb045.bmp	1	2	1.754199	3377.610711
055	1	2	38	107	other_00797_941205_fb_edt.bmp	2	3	2.176093	3379.476726
055	1	2	39	108	white_mw080.bmp	0	2	1.388908	3381.775902
055	1	2	40	109	black_mb075.bmp	1	2	1.161391	3383.275370
055	1	2	41	110	black_mb096.bmp	1	2	2.558454	3384.558236
055	1	2	42	111	white_mw057.bmp	0	2	2.420663	3387.223939
055	1	2	43	112	other_00712_941205_fa_edt.bmp	2	3	2.416119	3389.756394
055	1	2	44	113	other_00740_941205_fa_edt.bmp	2	3	1.188130	3392.288843
055	1	2	45	114	white_mw072.bmp	0	2	1.112092	3393.588392
055	1	2	46	115	white_mw084.bmp	0	2	1.103244	3394.821285
055	1	2	47	116	other_00737_941201_fa_edt.bmp	2	3	3.374895	3396.037506
055	1	2	48	117	other_00666_941121_fa_edt_rot.bmp	2	2	1.124783	3399.519604
055	1	2	49	118	black_mb038.bmp	1	2	1.748281	3400.752553
055	1	2	50	119	other_00911_960530_fa_edt.bmp	2	4	3.153767	3402.618525
055	1	2	51	120	other_00976_960627_fb_edt.bmp	2	2	2.480103	3405.884021
055	1	2	52	121	white_mw070.bmp	0	2	1.041596	3408.483101
055	1	2	53	122	white_mw058.bmp	0	2	1.659371	3409.632703
055	1	2	54	123	white_mw060.bmp	0	2	1.285306	3411.398731
055	1	2	55	124	black_mb081.bmp	1	3	2.309676	3412.798206
055	1	2	56	125	white_mw065.bmp	0	2	1.181294	3415.230692
055	1	2	57	126	black_mb092.bmp	1	3	1.369765	3416.530217
055	1	2	58	127	white_mw046.bmp	0	3	2.334810	3418.013041
055	1	2	59	128	white_mw071.bmp	0	2	1.661598	3420.462188
055	1	2	60	129	black_mb050.bmp	1	2	1.502822	3422.244877
055	1	2	61	130	black_mb058.bmp	1	2	1.198771	3423.860973
055	1	2	62	131	white_mw073.bmp	0	4	1.674432	3425.177172
055	1	2	63	132	white_mw074.bmp	0	3	2.459758	3426.959874
055	1	2	64	133	other_00810_941205_fb_edt_rot.bmp	2	4	2.213327	3429.542321
055	1	2	65	134	black_mb082.bmp	1	4	2.040789	3431.874785
055	1	2	66	135	white_mw076.bmp	0	3	1.891439	3434.024039
055	1	2	67	136	black_mb070.bmp	1	2	1.772101	3436.023314
055	1	2	68	137	white_mw097.bmp	0	2	1.593667	3437.905982
055	1	2	69	138	black_mb072.bmp	1	3	1.477258	3439.622046
