SUBJECT ID	CONDITION	BLOCK	TRIAL NUM	CUMULATIVE TRIAL NUM	STIM	STIM VALENCE	STIM RACE	RESPONSE	CORRECT	RT	START TIME	CORRECTION TIME	CORRECTION START
028	0	1	1	1	Great	1	NaN	0	1	0.980581	0.200084	NaN	NaN
028	0	1	2	2	Lovely	1	NaN	0	1	0.559249	0.200063	NaN	NaN
028	0	1	3	3	Fabulous	1	NaN	0	1	0.465890	0.200024	NaN	NaN
028	0	1	4	4	Revolting	0	NaN	1	1	0.600218	0.200049	NaN	NaN
028	0	1	5	5	Disgusting	0	NaN	1	1	0.409616	0.200097	NaN	NaN
028	0	1	6	6	Disgusting	0	NaN	1	1	0.384876	0.200024	NaN	NaN
028	0	1	7	7	Wonderful	1	NaN	0	1	0.506881	0.200087	NaN	NaN
028	0	1	8	8	Horrid	0	NaN	1	1	0.752064	0.200057	NaN	NaN
028	0	1	9	9	Terrible	0	NaN	1	1	0.467139	0.200011	NaN	NaN
028	0	1	10	10	Terrific	1	NaN	1	0	0.386108	0.200080	0.986055	4763.631914
028	0	1	11	11	Foul	0	NaN	1	1	0.715795	0.200027	NaN	NaN
028	0	1	12	12	Terrific	1	NaN	0	1	0.504881	0.200029	NaN	NaN
028	0	1	13	13	Horrid	0	NaN	1	1	0.503075	0.200021	NaN	NaN
028	0	1	14	14	Fabulous	1	NaN	0	1	0.500239	0.200054	NaN	NaN
028	0	1	15	15	Superb	1	NaN	0	1	0.579599	0.200058	NaN	NaN
028	0	1	16	16	Horrible	0	NaN	1	1	0.687448	0.200071	NaN	NaN
028	0	1	17	17	Revolting	0	NaN	1	1	0.774270	0.200026	NaN	NaN
028	0	1	18	18	Fantastic	1	NaN	0	1	0.536756	0.200046	NaN	NaN
028	0	1	19	19	Fabulous	1	NaN	0	1	0.732244	0.200079	NaN	NaN
028	0	1	20	20	Revolting	0	NaN	1	1	0.616726	0.200038	NaN	NaN
028	0	2	1	21	B0jpg.jpg	NaN	1	0	1	0.704189	0.200034	NaN	NaN
028	0	2	2	22	W1jpg.jpg	NaN	0	1	1	0.485972	0.200055	NaN	NaN
028	0	2	3	23	W5jpg.jpg	NaN	0	1	1	0.580765	0.200062	NaN	NaN
028	0	2	4	24	B8jpg.jpg	NaN	1	0	1	0.505030	0.200045	NaN	NaN
028	0	2	5	25	B7jpg.jpg	NaN	1	0	1	0.406318	0.200014	NaN	NaN
028	0	2	6	26	B8jpg.jpg	NaN	1	0	1	0.391072	0.200060	NaN	NaN
028	0	2	7	27	W6jpg.jpg	NaN	0	1	1	0.312627	0.200077	NaN	NaN
028	0	2	8	28	B2jpg.jpg	NaN	1	0	1	0.412890	0.200084	NaN	NaN
028	0	2	9	29	B1jpg.jpg	NaN	1	0	1	0.453006	0.200019	NaN	NaN
028	0	2	10	30	W4jpg.jpg	NaN	0	1	1	0.588042	0.200042	NaN	NaN
028	0	2	11	31	W2jpg.jpg	NaN	0	1	1	0.479038	0.200053	NaN	NaN
028	0	2	12	32	W0jpg.jpg	NaN	0	1	1	0.486629	0.200062	NaN	NaN
028	0	2	13	33	B3jpg.jpg	NaN	1	0	1	0.501528	0.200033	NaN	NaN
028	0	2	14	34	W3jpg.jpg	NaN	0	1	1	0.451115	0.200040	NaN	NaN
028	0	2	15	35	W8jpg.jpg	NaN	0	1	1	0.451434	0.200048	NaN	NaN
028	0	2	16	36	B6jpg.jpg	NaN	1	0	1	0.403632	0.200063	NaN	NaN
028	0	2	17	37	B9jpg.jpg	NaN	1	0	1	0.365337	0.200045	NaN	NaN
028	0	2	18	38	B5jpg.jpg	NaN	1	0	1	0.328246	0.200066	NaN	NaN
028	0	2	19	39	W7jpg.jpg	NaN	0	1	1	0.397189	0.200014	NaN	NaN
028	0	2	20	40	W4jpg.jpg	NaN	0	0	0	0.406081	0.200010	0.877972	4799.935780
028	0	3	1	41	Wonderful	1	NaN	0	1	1.230540	0.200082	NaN	NaN
028	0	3	2	42	B4jpg.jpg	NaN	1	0	1	1.055712	0.200036	NaN	NaN
028	0	3	3	43	Terrific	1	NaN	0	1	1.126915	0.200006	NaN	NaN
028	0	3	4	44	W1jpg.jpg	NaN	0	1	1	0.771238	0.200023	NaN	NaN
028	0	3	5	45	Fantastic	1	NaN	0	1	1.061729	0.200042	NaN	NaN
028	0	3	6	46	B4jpg.jpg	NaN	1	0	1	0.740862	0.200057	NaN	NaN
028	0	3	7	47	Wonderful	1	NaN	0	1	0.943871	0.200009	NaN	NaN
028	0	3	8	48	B6jpg.jpg	NaN	1	0	1	0.860217	0.200024	NaN	NaN
028	0	3	9	49	Terrific	1	NaN	0	1	0.746094	0.200047	NaN	NaN
028	0	3	10	50	W3jpg.jpg	NaN	0	1	1	0.989779	0.200029	NaN	NaN
028	0	3	11	51	Horrible	0	NaN	1	1	0.584846	0.200027	NaN	NaN
028	0	3	12	52	W6jpg.jpg	NaN	0	1	1	0.586563	0.200052	NaN	NaN
028	0	3	13	53	Nasty	0	NaN	1	1	0.596895	0.200018	NaN	NaN
028	0	3	14	54	W8jpg.jpg	NaN	0	1	1	0.471091	0.200035	NaN	NaN
028	0	3	15	55	Foul	0	NaN	1	1	0.605445	0.200068	NaN	NaN
028	0	3	16	56	B0jpg.jpg	NaN	1	0	1	0.567588	0.200018	NaN	NaN
028	0	3	17	57	Horrible	0	NaN	1	1	0.747442	0.200093	NaN	NaN
028	0	3	18	58	W7jpg.jpg	NaN	0	1	1	0.549106	0.200050	NaN	NaN
028	0	3	19	59	Horrible	0	NaN	1	1	0.568747	0.200040	NaN	NaN
028	0	3	20	60	B1jpg.jpg	NaN	1	0	1	0.564070	0.200062	NaN	NaN
028	0	3	1	61	Horrible	0	NaN	1	1	0.957166	0.200020	NaN	NaN
028	0	3	2	62	W2jpg.jpg	NaN	0	1	1	0.480299	0.200042	NaN	NaN
028	0	3	3	63	Wonderful	1	NaN	0	1	0.767240	0.200068	NaN	NaN
028	0	3	4	64	B5jpg.jpg	NaN	1	0	1	0.378912	0.200033	NaN	NaN
028	0	3	5	65	Fantastic	1	NaN	0	1	1.269767	0.200039	NaN	NaN
028	0	3	6	66	W2jpg.jpg	NaN	0	1	1	0.541023	0.200075	NaN	NaN
028	0	3	7	67	Fabulous	1	NaN	0	1	0.752026	0.200061	NaN	NaN
028	0	3	8	68	B4jpg.jpg	NaN	1	0	1	0.564386	0.200050	NaN	NaN
028	0	3	9	69	Terrible	0	NaN	1	1	0.510629	0.200070	NaN	NaN
028	0	3	10	70	W5jpg.jpg	NaN	0	1	1	0.404294	0.200058	NaN	NaN
028	0	3	11	71	Fantastic	1	NaN	0	1	0.774631	0.200036	NaN	NaN
028	0	3	12	72	W1jpg.jpg	NaN	0	1	1	0.401663	0.200009	NaN	NaN
028	0	3	13	73	Fabulous	1	NaN	0	1	0.649833	0.200010	NaN	NaN
028	0	3	14	74	W8jpg.jpg	NaN	0	1	1	0.497571	0.200009	NaN	NaN
028	0	3	15	75	Foul	0	NaN	1	1	0.558413	0.200062	NaN	NaN
028	0	3	16	76	W8jpg.jpg	NaN	0	1	1	0.554102	0.200036	NaN	NaN
028	0	3	17	77	Wonderful	1	NaN	0	1	0.605573	0.200081	NaN	NaN
028	0	3	18	78	B2jpg.jpg	NaN	1	0	1	0.519394	0.200070	NaN	NaN
028	0	3	19	79	Superb	1	NaN	0	1	0.668337	0.200051	NaN	NaN
028	0	3	20	80	W2jpg.jpg	NaN	0	1	1	0.483326	0.200003	NaN	NaN
028	0	3	21	81	Foul	0	NaN	1	1	0.632967	0.200035	NaN	NaN
028	0	3	22	82	W1jpg.jpg	NaN	0	1	1	0.545852	0.200061	NaN	NaN
028	0	3	23	83	Revolting	0	NaN	1	1	0.575527	0.200020	NaN	NaN
028	0	3	24	84	B2jpg.jpg	NaN	1	0	1	0.449889	0.200080	NaN	NaN
028	0	3	25	85	Terrific	1	NaN	1	0	0.906837	0.200011	1.530833	4873.726435
028	0	3	26	86	B8jpg.jpg	NaN	1	0	1	0.855456	0.200034	NaN	NaN
028	0	3	27	87	Revolting	0	NaN	1	1	0.823171	0.200057	NaN	NaN
028	0	3	28	88	W2jpg.jpg	NaN	0	1	1	0.560683	0.200062	NaN	NaN
028	0	3	29	89	Horrible	0	NaN	1	1	0.685385	0.200066	NaN	NaN
028	0	3	30	90	B8jpg.jpg	NaN	1	0	1	0.428225	0.200082	NaN	NaN
028	0	3	31	91	Wonderful	1	NaN	0	1	0.813426	0.200011	NaN	NaN
028	0	3	32	92	B8jpg.jpg	NaN	1	0	1	0.631060	0.200056	NaN	NaN
028	0	3	33	93	Nasty	0	NaN	1	1	0.559797	0.200057	NaN	NaN
028	0	3	34	94	B0jpg.jpg	NaN	1	0	1	0.524755	0.200064	NaN	NaN
028	0	3	35	95	Lovely	1	NaN	0	1	0.649666	0.200004	NaN	NaN
028	0	3	36	96	W3jpg.jpg	NaN	0	1	1	0.521402	0.200071	NaN	NaN
028	0	3	37	97	Terrible	0	NaN	1	1	1.111417	0.200077	NaN	NaN
028	0	3	38	98	B2jpg.jpg	NaN	1	0	1	0.556714	0.200029	NaN	NaN
028	0	3	39	99	Foul	0	NaN	1	1	0.600463	0.200072	NaN	NaN
028	0	3	40	100	B3jpg.jpg	NaN	1	0	1	0.804096	0.200036	NaN	NaN
028	0	8	1	101	Horrible	0	NaN	0	1	0.899884	0.200005	NaN	NaN
028	0	8	2	102	Revolting	0	NaN	0	1	0.545643	0.200066	NaN	NaN
028	0	8	3	103	Fantastic	1	NaN	1	1	0.669938	0.200003	NaN	NaN
028	0	8	4	104	Disgusting	0	NaN	0	1	0.646168	0.200037	NaN	NaN
028	0	8	5	105	Nasty	0	NaN	0	1	0.573949	0.200080	NaN	NaN
028	0	8	6	106	Foul	0	NaN	0	1	0.776833	0.200069	NaN	NaN
028	0	8	7	107	Nice	1	NaN	1	1	0.756870	0.200015	NaN	NaN
028	0	8	8	108	Great	1	NaN	1	1	0.614864	0.200018	NaN	NaN
028	0	8	9	109	Fabulous	1	NaN	1	1	0.528578	0.200078	NaN	NaN
028	0	8	10	110	Foul	0	NaN	0	1	0.614238	0.200033	NaN	NaN
028	0	8	11	111	Wonderful	1	NaN	1	1	0.960168	0.200002	NaN	NaN
028	0	8	12	112	Fantastic	1	NaN	1	1	1.099597	0.200060	NaN	NaN
028	0	8	13	113	Fabulous	1	NaN	1	1	0.689765	0.200025	NaN	NaN
028	0	8	14	114	Terrible	0	NaN	0	1	0.664335	0.200020	NaN	NaN
028	0	8	15	115	Disgusting	0	NaN	0	1	0.551972	0.200079	NaN	NaN
028	0	8	16	116	Terrible	0	NaN	0	1	0.803937	0.200003	NaN	NaN
028	0	8	17	117	Superb	1	NaN	1	1	0.684827	0.200038	NaN	NaN
028	0	8	18	118	Horrible	0	NaN	0	1	0.635160	0.200071	NaN	NaN
028	0	8	19	119	Terrific	1	NaN	1	1	0.731999	0.200068	NaN	NaN
028	0	8	20	120	Foul	0	NaN	0	1	0.643797	0.200053	NaN	NaN
028	0	8	21	121	Wonderful	1	NaN	1	1	0.556197	0.200011	NaN	NaN
028	0	8	22	122	Fantastic	1	NaN	1	1	0.559828	0.200029	NaN	NaN
028	0	8	23	123	Revolting	0	NaN	0	1	0.578079	0.200080	NaN	NaN
028	0	8	24	124	Nasty	0	NaN	0	1	0.604445	0.200048	NaN	NaN
028	0	8	25	125	Fantastic	1	NaN	1	1	1.238004	0.200029	NaN	NaN
028	0	8	26	126	Nice	1	NaN	1	1	0.519354	0.200034	NaN	NaN
028	0	8	27	127	Fabulous	1	NaN	1	1	0.524226	0.200007	NaN	NaN
028	0	8	28	128	Terrible	0	NaN	0	1	0.450014	0.200029	NaN	NaN
028	0	8	29	129	Horrible	0	NaN	0	1	0.529450	0.200070	NaN	NaN
028	0	8	30	130	Wonderful	1	NaN	1	1	0.550352	0.200034	NaN	NaN
028	0	8	31	131	Disgusting	0	NaN	0	1	0.995253	0.200065	NaN	NaN
028	0	8	32	132	Superb	1	NaN	1	1	0.548523	0.200056	NaN	NaN
028	0	8	33	133	Wonderful	1	NaN	1	1	0.545447	0.200062	NaN	NaN
028	0	8	34	134	Horrible	0	NaN	0	1	0.549745	0.200071	NaN	NaN
028	0	8	35	135	Superb	1	NaN	1	1	0.473259	0.200049	NaN	NaN
028	0	8	36	136	Terrific	1	NaN	1	1	0.705627	0.200035	NaN	NaN
028	0	8	37	137	Wonderful	1	NaN	1	1	0.840012	0.200048	NaN	NaN
028	0	8	38	138	Horrid	0	NaN	1	0	0.520381	0.200038	1.048362	4934.904972
028	0	8	39	139	Disgusting	0	NaN	0	1	0.800153	0.200022	NaN	NaN
028	0	8	40	140	Terrible	0	NaN	0	1	0.465796	0.200047	NaN	NaN
028	0	4	1	141	Great	1	NaN	1	1	0.751537	0.200013	NaN	NaN
028	0	4	2	142	B6jpg.jpg	NaN	1	0	1	1.012561	0.200029	NaN	NaN
028	0	4	3	143	Disgusting	0	NaN	0	1	1.310576	0.200024	NaN	NaN
028	0	4	4	144	B5jpg.jpg	NaN	1	0	1	0.739553	0.200033	NaN	NaN
028	0	4	5	145	Terrific	1	NaN	1	1	0.831838	0.200016	NaN	NaN
028	0	4	6	146	W4jpg.jpg	NaN	0	1	1	0.384383	0.200040	NaN	NaN
028	0	4	7	147	Awful	0	NaN	0	1	0.843228	0.200025	NaN	NaN
028	0	4	8	148	W2jpg.jpg	NaN	0	1	1	0.466999	0.200048	NaN	NaN
028	0	4	9	149	Horrid	0	NaN	0	1	1.625913	0.200023	NaN	NaN
028	0	4	10	150	B6jpg.jpg	NaN	1	0	1	0.842602	0.200035	NaN	NaN
028	0	4	11	151	Terrific	1	NaN	1	1	0.665634	0.200044	NaN	NaN
028	0	4	12	152	W7jpg.jpg	NaN	0	1	1	0.553397	0.200017	NaN	NaN
028	0	4	13	153	Fantastic	1	NaN	1	1	0.813003	0.200063	NaN	NaN
028	0	4	14	154	B2jpg.jpg	NaN	1	0	1	0.662063	0.200065	NaN	NaN
028	0	4	15	155	Foul	0	NaN	0	1	0.981219	0.200059	NaN	NaN
028	0	4	16	156	W7jpg.jpg	NaN	0	1	1	0.999308	0.200063	NaN	NaN
028	0	4	17	157	Nice	1	NaN	1	1	0.464623	0.200033	NaN	NaN
028	0	4	18	158	W5jpg.jpg	NaN	0	1	1	0.544806	0.200040	NaN	NaN
028	0	4	19	159	Awful	0	NaN	0	1	0.669799	0.200031	NaN	NaN
028	0	4	20	160	B2jpg.jpg	NaN	1	0	1	0.388832	0.200064	NaN	NaN
028	0	4	1	161	Terrific	1	NaN	1	1	0.855529	0.200060	NaN	NaN
028	0	4	2	162	B0jpg.jpg	NaN	1	0	1	0.439963	0.200009	NaN	NaN
028	0	4	3	163	Horrible	0	NaN	0	1	0.800194	0.200093	NaN	NaN
028	0	4	4	164	B9jpg.jpg	NaN	1	0	1	0.490620	0.200031	NaN	NaN
028	0	4	5	165	Fabulous	1	NaN	1	1	0.640833	0.200039	NaN	NaN
028	0	4	6	166	W8jpg.jpg	NaN	0	1	1	0.369875	0.200019	NaN	NaN
028	0	4	7	167	Awful	0	NaN	0	1	0.646009	0.200018	NaN	NaN
028	0	4	8	168	W3jpg.jpg	NaN	0	1	1	0.559102	0.200023	NaN	NaN
028	0	4	9	169	Fabulous	1	NaN	1	1	1.273966	0.200045	NaN	NaN
028	0	4	10	170	B3jpg.jpg	NaN	1	0	1	0.439855	0.200053	NaN	NaN
028	0	4	11	171	Great	1	NaN	1	1	0.759479	0.200018	NaN	NaN
028	0	4	12	172	W8jpg.jpg	NaN	0	1	1	0.483205	0.200028	NaN	NaN
028	0	4	13	173	Fabulous	1	NaN	1	1	0.481617	0.200025	NaN	NaN
028	0	4	14	174	W0jpg.jpg	NaN	0	1	1	0.504375	0.200079	NaN	NaN
028	0	4	15	175	Terrible	0	NaN	0	1	0.590023	0.200069	NaN	NaN
028	0	4	16	176	W7jpg.jpg	NaN	0	1	1	0.631735	0.200082	NaN	NaN
028	0	4	17	177	Foul	0	NaN	1	0	0.588161	0.200013	1.684065	4994.784324
028	0	4	18	178	B5jpg.jpg	NaN	1	0	1	0.626013	0.200013	NaN	NaN
028	0	4	19	179	Nice	1	NaN	1	1	0.626380	0.200021	NaN	NaN
028	0	4	20	180	W5jpg.jpg	NaN	0	1	1	0.963350	0.200079	NaN	NaN
028	0	4	21	181	Foul	0	NaN	1	0	0.534539	0.200024	1.062807	5000.065392
028	0	4	22	182	W6jpg.jpg	NaN	0	1	1	0.916941	0.200008	NaN	NaN
028	0	4	23	183	Nice	1	NaN	1	1	0.930040	0.200066	NaN	NaN
028	0	4	24	184	B6jpg.jpg	NaN	1	0	1	0.503328	0.200080	NaN	NaN
028	0	4	25	185	Great	1	NaN	1	1	0.628109	0.200007	NaN	NaN
028	0	4	26	186	B8jpg.jpg	NaN	1	0	1	0.469069	0.200002	NaN	NaN
028	0	4	27	187	Awful	0	NaN	0	1	0.765377	0.200023	NaN	NaN
028	0	4	28	188	W6jpg.jpg	NaN	0	1	1	0.456341	0.200056	NaN	NaN
028	0	4	29	189	Nasty	0	NaN	0	1	0.800693	0.200045	NaN	NaN
028	0	4	30	190	B4jpg.jpg	NaN	1	0	1	0.402562	0.200045	NaN	NaN
028	0	4	31	191	Terrible	0	NaN	1	0	1.283219	0.200018	1.723282	5011.378103
028	0	4	32	192	B4jpg.jpg	NaN	1	0	1	0.791987	0.200043	NaN	NaN
028	0	4	33	193	Terrific	1	NaN	1	1	0.641662	0.200037	NaN	NaN
028	0	4	34	194	W4jpg.jpg	NaN	0	1	1	0.610050	0.200082	NaN	NaN
028	0	4	35	195	Revolting	0	NaN	0	1	0.868309	0.200058	NaN	NaN
028	0	4	36	196	W2jpg.jpg	NaN	0	1	1	0.707299	0.200065	NaN	NaN
028	0	4	37	197	Fabulous	1	NaN	1	1	0.937825	0.200020	NaN	NaN
028	0	4	38	198	B6jpg.jpg	NaN	1	0	1	0.598844	0.200032	NaN	NaN
028	0	4	39	199	Horrid	0	NaN	0	1	0.857632	0.200083	NaN	NaN
028	0	4	40	200	B5jpg.jpg	NaN	1	0	1	0.505189	0.200003	NaN	NaN
