SUBJECT ID	CONDITION	BLOCK	TRIAL NUM	CUMULATIVE TRIAL NUM	STIM	PARTNER RACE	RESPONSE	RT	START TIME
028	2	1	01	01	white_mw078.bmp	0	7	4.675561	3847.603627
028	2	1	02	02	black_mb060.bmp	1	8	2.461862	3852.401397
028	2	1	03	03	white_mw099.bmp	0	6	1.551338	3854.983810
028	2	1	04	04	other_00673_941121_fa_edt_rot.bmp	2	9	1.789264	3856.649890
028	2	1	05	05	white_mw066.bmp	0	8	1.833697	3858.549363
028	2	1	06	06	black_mb062.bmp	1	7	1.532542	3860.498542
028	2	1	07	07	other_00737_941201_fa_edt.bmp	2	9	1.371025	3862.147951
028	2	1	08	08	black_mb065.bmp	1	7	2.392177	3863.630783
028	2	1	09	09	black_mb056.bmp	1	4	1.956988	3866.129902
028	2	1	10	10	white_mw076.bmp	0	2	1.555300	3868.195843
028	2	1	11	11	black_mb067.bmp	1	8	3.480821	3869.861933
028	2	1	12	12	other_00912_960530_fa_edt.bmp	2	9	0.874069	3873.460681
028	2	1	13	13	black_mb072.bmp	1	6	1.563020	3874.443650
028	2	1	14	14	white_mw067.bmp	0	5	1.736238	3876.126391
028	2	1	15	15	white_mw034.bmp	0	5	1.310929	3877.975750
028	2	1	16	16	black_mb044.bmp	1	7	1.613949	3879.408566
028	2	1	17	17	black_mb079.bmp	1	8	1.633333	3881.141300
028	2	1	18	18	white_mw063.bmp	0	3	2.531877	3882.890672
028	2	1	19	19	white_mw072.bmp	0	4	1.610612	3885.539743
028	2	1	20	20	black_mb100.bmp	1	6	1.573265	3887.289141
028	2	1	21	21	white_mw054.bmp	0	5	2.690754	3888.971872
028	2	1	22	22	black_mb069.bmp	1	6	1.747407	3891.770909
028	2	1	23	23	white_mw053.bmp	0	4	1.793469	3893.636927
028	2	1	24	24	white_mw098.bmp	0	3	2.797313	3895.552913
028	2	1	25	25	other_00672_941121_fa_edt.bmp	2	8	1.441652	3898.468555
028	2	1	26	26	other_00793_941205_fb_edt.bmp	2	9	0.916072	3900.018012
028	2	1	27	27	black_mb082.bmp	1	9	1.163044	3901.050985
028	2	1	28	28	white_mw040.bmp	0	4	2.600224	3902.333866
028	2	1	29	29	white_mw033.bmp	0	7	1.764465	3905.049569
028	2	1	30	30	other_00623_940928_fb_edt.bmp	2	6	1.481780	3906.932255
028	2	1	31	31	black_mb054.bmp	1	8	2.162218	3908.531679
028	2	1	32	32	black_mb051.bmp	1	5	1.943733	3910.814227
028	2	1	33	33	white_mw071.bmp	0	2	1.565761	3912.880166
028	2	1	34	34	other_00869_940307_fa_edt.bmp	2	9	0.834945	3914.562899
028	2	1	35	35	black_mb058.bmp	1	6	1.605271	3915.512579
028	2	1	36	36	black_mb097.bmp	1	6	1.065144	3917.228640
028	2	1	37	37	other_00712_941205_fa_edt.bmp	2	9	0.730167	3918.411577
028	2	1	38	38	other_00629_940928_fa_edt.bmp	2	9	0.728523	3919.261260
028	2	1	39	39	white_mw095.bmp	0	4	2.286719	3920.110949
028	2	1	40	40	white_mw082.bmp	0	5	1.279584	3922.510109
028	2	1	41	41	other_01207_940128_fb_edt.bmp	2	9	1.103991	3923.909634
028	2	1	42	42	other_00880_960530_fa_edt.bmp	2	9	0.663636	3925.125869
028	2	1	43	43	other_00933_960627_fa_edt.bmp	2	9	0.560709	3925.908931
028	2	1	44	44	white_mw041.bmp	0	3	2.781500	3926.592029
028	2	1	45	45	black_mb055.bmp	1	8	1.210580	3929.491007
028	2	1	46	46	white_mw047.bmp	0	3	1.629621	3930.823872
028	2	1	47	47	black_mb098.bmp	1	6	1.448156	3932.573262
028	2	1	48	48	black_mb083.bmp	1	7	1.490110	3934.139375
028	2	1	49	49	other_00640_941031_fa_edt_rot.bmp	2	8	1.042610	3935.738816
028	2	1	50	50	other_00976_960627_fb_edt.bmp	2	9	0.924912	3936.888410
028	2	1	51	51	white_mw097.bmp	0	1	2.003814	3937.921367
028	2	1	52	52	white_mw074.bmp	0	2	1.207931	3940.037306
028	2	1	53	53	other_00733_941201_fa_edt.bmp	2	8	1.203697	3941.353516
028	2	1	54	54	other_00666_941121_fa_edt_rot.bmp	2	7	1.215413	3942.669699
028	2	1	55	55	white_mw070.bmp	0	4	1.418632	3944.002582
028	2	1	56	56	other_00668_941121_fa_edt.bmp	2	9	0.965745	3945.535376
028	2	1	57	57	black_mb050.bmp	1	7	1.786686	3946.618330
028	2	1	58	58	other_00911_960530_fa_edt.bmp	2	9	0.759426	3948.517666
028	2	1	59	59	white_mw068.bmp	0	4	1.637058	3949.384014
028	2	1	60	60	white_mw044.bmp	0	5	1.559721	3951.133413
028	2	1	61	61	other_00622_940928_fb_edt.bmp	2	9	1.213550	3952.799481
028	2	1	62	62	other_00809_941205_fa_edt.bmp	2	9	0.648657	3954.132374
028	2	1	63	63	black_mb099.bmp	1	7	1.666103	3954.898760
028	2	1	64	64	black_mb096.bmp	1	8	2.131365	3956.681467
028	2	1	65	65	white_mw038.bmp	0	4	2.682199	3958.930699
028	2	1	66	66	black_mb047.bmp	1	6	1.451107	3961.729694
028	2	1	67	67	other_00841_940307_fb_edt.bmp	2	9	1.164901	3963.295815
028	2	1	68	68	white_mw042.bmp	0	2	2.457988	3964.578680
028	2	1	69	69	black_mb064.bmp	1	8	2.132209	3967.144459
028	2	2	01	70	white_mw039.bmp	0	7	2.443250	3975.425208
028	2	2	02	71	black_mb066.bmp	1	8	1.693764	3977.990654
028	2	2	03	72	black_mb070.bmp	1	7	1.389618	3979.806685
028	2	2	04	73	white_mw057.bmp	0	4	1.618210	3981.306144
028	2	2	05	74	white_mw077.bmp	0	4	1.341496	3983.038884
028	2	2	06	75	other_00698_941121_fb_edt.bmp	2	9	1.091849	3984.488362
028	2	2	07	76	other_00859_940307_fa_edt.bmp	2	9	0.724272	3985.687955
028	2	2	08	77	black_mb038.bmp	1	8	1.547257	3986.520995
028	2	2	09	78	black_mb040.bmp	1	8	0.873043	3988.187078
028	2	2	10	79	white_mw085.bmp	0	4	1.954160	3989.170065
028	2	2	11	80	black_mb039.bmp	1	8	1.160057	3991.236023
028	2	2	12	81	other_00795_941205_fb_edt.bmp	2	9	0.757901	3992.502212
028	2	2	13	82	other_00652_941031_fb_edt.bmp	2	9	0.867535	3993.368579
028	2	2	14	83	white_mw046.bmp	0	5	1.396532	3994.351568
028	2	2	15	84	white_mw091.bmp	0	3	1.304400	3995.867702
028	2	2	16	85	black_mb081.bmp	1	6	2.008137	3997.283885
028	2	2	17	86	black_mb092.bmp	1	9	0.860189	3999.399796
028	2	2	18	87	black_mb045.bmp	1	7	1.685853	4000.366124
028	2	2	19	88	black_mb068.bmp	1	8	1.398415	4002.165542
028	2	2	20	89	white_mw029.bmp	0	4	1.794251	4003.681659
028	2	2	21	90	white_mw043.bmp	0	2	1.326283	4005.597636
028	2	2	22	91	white_mw073.bmp	0	2	0.917404	4007.030459
028	2	2	23	92	white_mw056.bmp	0	2	1.780231	4008.063438
028	2	2	24	93	other_00763_941201_fb_edt.bmp	2	9	1.056946	4009.962770
028	2	2	25	94	other_00656_941121_fb_edt.bmp	2	9	0.802636	4011.129030
028	2	2	26	95	other_00740_941205_fa_edt.bmp	2	9	1.022250	4012.045385
028	2	2	27	96	other_00810_941205_fb_edt_rot.bmp	2	9	0.577275	4013.178309
028	2	2	28	97	other_00797_941205_fb_edt.bmp	2	9	0.621600	4013.878062
028	2	2	29	98	black_mb089.bmp	1	8	1.552461	4014.611140
028	2	2	30	99	white_mw035.bmp	0	6	2.134363	4016.277219
028	2	2	31	100	black_mb094.bmp	1	5	1.477113	4018.526420
028	2	2	32	101	other_00625_940928_fb_edt.bmp	2	9	0.741644	4020.125871
028	2	2	33	102	white_mw075.bmp	0	4	1.307953	4020.975560
028	2	2	34	103	black_mb059.bmp	1	4	2.163696	4022.391744
028	2	2	35	104	black_mb061.bmp	1	6	1.377130	4024.674275
028	2	2	36	105	other_00828_940307_fa_edt.bmp	2	9	0.733640	4026.173734
028	2	2	37	106	white_mw048.bmp	0	2	1.171906	4027.023451
028	2	2	38	107	black_mb042.bmp	1	5	1.496996	4028.306336
028	2	2	39	108	black_mb077.bmp	1	9	1.016942	4029.922436
028	2	2	40	109	black_mb057.bmp	1	8	1.059906	4031.055373
028	2	2	41	110	black_mb071.bmp	1	8	2.149555	4032.221623
028	2	2	42	111	other_00710_960530_fa_edt.bmp	2	9	0.691759	4034.487499
028	2	2	43	112	black_mb085.bmp	1	7	1.347962	4035.287218
028	2	2	44	113	white_mw058.bmp	0	5	1.473777	4036.753371
028	2	2	45	114	white_mw060.bmp	0	4	1.099003	4038.336136
028	2	2	46	115	white_mw052.bmp	0	4	1.498717	4039.552390
028	2	2	47	116	black_mb063.bmp	1	8	1.218468	4041.168490
028	2	2	48	117	other_00621_941121_fa_edt.bmp	2	9	0.717739	4042.501341
028	2	2	49	118	white_mw092.bmp	0	3	2.924646	4043.334383
028	2	2	50	119	black_mb075.bmp	1	7	0.852191	4046.366665
028	2	2	51	120	black_mb078.bmp	1	9	0.861932	4047.332993
028	2	2	52	121	other_00866_940307_fa_edt.bmp	2	9	0.678819	4048.316033
028	2	2	53	122	other_00726_941201_fb_edt.bmp	2	9	0.639278	4049.115701
028	2	2	54	123	white_mw049.bmp	0	5	1.681504	4049.865425
028	2	2	55	124	black_mb049.bmp	1	6	1.226061	4051.664808
028	2	2	56	125	black_mb073.bmp	1	6	0.781175	4052.997659
028	2	2	57	126	black_mb088.bmp	1	7	0.601488	4053.897358
028	2	2	58	127	white_mw084.bmp	0	4	1.204946	4054.613758
028	2	2	59	128	other_00734_941201_fa_edt.bmp	2	9	0.832768	4055.929976
028	2	2	60	129	black_mb046.bmp	1	8	1.019044	4056.879634
028	2	2	61	130	other_00724_941201_fa_edt.bmp	2	9	0.630185	4058.012586
028	2	2	62	131	white_mw096.bmp	0	4	1.080467	4058.762316
028	2	2	63	132	white_mw080.bmp	0	4	1.464782	4059.961882
028	2	2	64	133	other_00926_960627_fa_edt.bmp	2	9	0.793955	4061.544677
028	2	2	65	134	other_00921_960627_fb_edt.bmp	2	9	0.709601	4062.461009
028	2	2	66	135	black_mb093.bmp	1	8	1.525075	4063.277399
028	2	2	67	136	white_mw065.bmp	0	5	1.916383	4064.910146
028	2	2	68	137	white_mw051.bmp	0	3	1.476133	4066.942781
028	2	2	69	138	white_mw089.bmp	0	3	1.652915	4068.525561
