SUBJECT ID	CONDITION	BLOCK	TRIAL NUM	CUMULATIVE TRIAL NUM	STIM	PARTNER RACE	RESPONSE	RT	START TIMEn001	1	1	01	01	other_sid1094_sk00000.png	2	4	8.038053	4483.091517
001	1	1	02	02	white_sid1075_sk00000.png	0	4	4.305778	4491.255410
001	1	1	03	03	white_sid1016_sk11000.png	0	4	6.874771	4495.670564
001	1	1	04	04	white_sid1021_sk11111.png	0	5	2.908804	4502.668212
001	1	1	05	05	white_sid1110_sk11100.png	0	5	3.252428	4505.700596
001	1	1	06	06	black_sid1002_sk00000.png	1	4	3.862283	4509.082650
001	1	1	07	07	black_sid1088_sk11111.png	1	6	2.328103	4513.064673
001	1	1	08	08	black_sid1107_sk11000.png	1	5	2.287000	4515.513854
001	1	1	09	09	other_sid1166_sk01110.png	2	4	4.079604	4517.913005
001	1	1	10	10	white_sid1097_sk11100.png	0	5	2.673066	4522.111641
001	1	1	11	11	white_sid1168_sk11111.png	0	6	3.146760	4524.893971
001	1	1	12	12	black_sid1035_sk11100.png	1	6	2.225176	4528.159543
001	1	1	13	13	white_sid1003_sk11110.png	0	5	2.860517	4530.492119
001	1	1	14	14	other_sid1104_sk00000.png	2	5	2.534170	4533.474478
001	1	1	15	15	white_sid1198_sk11110.png	0	6	3.613118	4536.123505
001	1	1	16	16	black_sid1108_sk11100.png	1	5	1.376995	4539.855594
001	1	1	17	17	white_sid1190_sk11000.png	0	4	3.085431	4541.355127
001	1	1	18	18	other_sid1044_sk11110.png	2	4	5.078491	4544.554070
001	1	1	19	19	other_sid1074_sk11110.png	2	5	1.872194	4549.752299
001	1	1	20	20	white_sid1176_sk11100.png	0	5	1.609471	4551.734945
001	1	1	21	21	other_sid1025_sk01100.png	2	5	4.397663	4553.450969
001	1	1	22	22	white_sid1054_sk00000.png	0	4	2.466344	4557.966153
001	1	1	23	23	other_sid1047_sk01101.png	2	4	1.988203	4560.548632
001	1	1	24	24	black_sid1173_sk11110.png	1	6	2.048388	4562.647957
001	1	1	25	25	other_sid1134_sk00000.png	2	5	3.962527	4564.813800
001	1	1	26	26	black_sid1073_sk11000.png	1	5	4.640741	4568.895750
001	1	1	27	27	black_sid1026_sk11110.png	1	6	2.796094	4573.644198
001	1	1	28	28	black_sid1179_sk11110.png	1	7	3.176368	4576.559860
001	1	1	29	29	white_sid1031_sk11110.png	0	6	2.302195	4579.842045
001	1	1	30	30	black_sid1119_sk10000.png	1	5	2.670191	4582.257965
001	1	1	31	31	white_sid1120_sk00001.png	0	5	1.519813	4585.040297
001	1	1	32	32	white_sid1112_sk00000.png	0	5	3.911540	4586.673127
001	1	1	33	33	black_sid1076_sk11100.png	1	5	2.350880	4590.705204
001	1	1	34	34	other_sid1090_sk11010.png	2	5	3.741158	4593.170943
001	1	1	35	35	white_sid1180_sk11110.png	0	5	3.260750	4597.019616
001	1	1	36	36	white_sid1051_sk10000.png	0	5	5.046205	4600.401864
001	1	1	37	37	black_sid1200_sk10101.png	1	5	3.281293	4605.566678
001	1	1	38	38	black_sid1102_sk11100.png	1	5	2.538924	4608.965528
001	1	2	01	39	black_sid1029_sk11000.png	1	4	1.953869	4617.645967
001	1	2	02	40	black_sid1172_sk11111.png	1	5	3.887864	4619.711954
001	1	2	03	41	other_sid1034_sk11110.png	2	5	5.201167	4623.710537
001	1	2	04	42	other_sid1057_sk10000.png	2	6	1.766322	4629.025409
001	1	2	05	43	other_sid1061_sk11000.png	2	4	1.803523	4630.908180
001	1	2	06	44	other_sid1167_sk11100.png	2	5	1.983505	4632.824180
001	1	2	07	45	white_sid1030_sk11100.png	0	5	2.100739	4634.923480
001	1	2	08	46	other_sid1116_sk11110.png	2	6	2.364227	4637.139343
001	1	2	09	47	black_sid1101_sk11000.png	1	5	3.193752	4639.621887
001	1	2	10	48	white_sid1006_sk00000.png	0	5	1.886147	4642.937424
001	1	2	11	49	white_sid1065_sk00000.png	0	5	1.718850	4644.936706
001	1	2	12	50	white_sid1042_sk01111.png	0	6	2.334139	4646.769411
001	1	2	13	51	black_sid1201_sk11110.png	1	5	1.260981	4649.218620
001	1	2	14	52	other_sid1145_sk11111.png	2	5	4.759003	4650.584779
001	1	2	15	53	white_sid1020_sk11100.png	0	5	4.926098	4655.449819
001	1	2	16	54	black_sid1137_sk00000.png	1	7	5.312724	4661.014661
001	1	2	17	55	black_sid1103_sk11100.png	1	4	2.665296	4666.446088
001	1	2	18	56	black_sid1129_sk11100.png	1	5	1.674829	4669.228509
001	1	2	19	57	black_sid1109_sk00000.png	1	4	1.316113	4671.011220
001	1	2	20	58	other_sid1130_sk00000.png	2	5	1.779172	4672.444145
001	1	2	21	59	white_sid1037_sk11110.png	0	4	2.727879	4674.343478
001	1	2	22	60	black_sid1071_sk10000.png	1	5	2.950797	4677.192452
001	1	2	23	61	black_sid1009_sk11111.png	1	5	1.453061	4680.258095
001	1	2	24	62	white_sid1171_sk11000.png	0	5	1.526962	4681.824224
001	1	2	25	63	black_sid1122_sk11110.png	1	5	3.238232	4683.456993
001	1	2	26	64	black_sid1184_sk00000.png	1	6	1.657398	4686.805899
001	1	2	27	65	white_sid1189_sk11100.png	0	6	2.435069	4688.571969
001	1	2	28	66	black_sid1010_sk11111.png	1	5	1.742125	4691.121088
001	1	2	29	67	other_sid1045_sk11000.png	2	5	2.196428	4692.970500
001	1	2	30	68	other_sid1022_sk11111.png	2	5	5.704909	4695.286347
001	1	2	31	69	white_sid1118_sk11111.png	0	5	2.828010	4701.451026
001	1	2	32	70	black_sid1050_sk00000.png	1	4	2.311353	4704.399979
001	1	2	33	71	other_sid1024_sk11000.png	2	6	1.630530	4706.832494
001	1	2	34	72	other_sid1150_sk11100.png	2	5	2.713190	4708.581857
001	1	2	35	73	white_sid1185_sk00000.png	0	5	2.936677	4711.414248
001	1	2	36	74	black_sid1015_sk11000.png	1	6	2.215598	4714.463300
001	1	2	37	75	white_sid1175_sk11100.png	0	6	1.587077	4716.795746
001	1	2	38	76	white_sid1039_sk11100.png	0	5	1.279872	4718.495285
