SUBJECT ID	CONDITION	BLOCK	TRIAL NUM	CUMULATIVE TRIAL NUM	STIM	PARTNER RACE	RESPONSE	RT	START TIME
048	2	1	01	01	white_mw054.bmp	0	6	3.143406	5043.325286
048	2	1	02	02	other_00866_940307_fa_edt.bmp	2	5	3.710308	5046.590298
048	2	1	03	03	other_00763_941201_fb_edt.bmp	2	5	2.110424	5050.422275
048	2	1	04	04	white_mw047.bmp	0	3	1.885628	5052.654816
048	2	1	05	05	black_mb099.bmp	1	5	2.278559	5054.654187
048	2	1	06	06	white_mw080.bmp	0	2	3.631251	5057.053233
048	2	1	07	07	other_00828_940307_fa_edt.bmp	2	5	2.801912	5060.801918
048	2	1	08	08	white_mw089.bmp	0	4	4.126638	5063.717563
048	2	1	09	09	black_mb078.bmp	1	8	2.261568	5067.966050
048	2	1	10	10	other_01207_940128_fb_edt.bmp	2	5	1.567629	5070.348517
048	2	1	11	11	black_mb075.bmp	1	4	2.124571	5072.031279
048	2	1	12	12	other_00623_940928_fb_edt.bmp	2	4	2.043736	5074.263825
048	2	1	13	13	black_mb068.bmp	1	4	1.773182	5076.446379
048	2	1	14	14	black_mb049.bmp	1	5	1.442857	5078.329050
048	2	1	15	15	black_mb059.bmp	1	4	1.532127	5079.895159
048	2	1	16	16	white_mw076.bmp	0	2	1.587264	5081.544574
048	2	1	17	17	white_mw040.bmp	0	2	2.087773	5083.243960
048	2	1	18	18	other_00656_941121_fb_edt.bmp	2	4	1.831955	5085.443180
048	2	1	19	19	white_mw051.bmp	0	2	3.322660	5087.392505
048	2	1	20	20	white_mw099.bmp	0	4	4.330871	5090.824621
048	2	1	21	21	white_mw067.bmp	0	3	1.570395	5095.273049
048	2	1	22	22	black_mb089.bmp	1	5	1.287597	5096.955784
048	2	1	23	23	black_mb064.bmp	1	4	1.551898	5098.355290
048	2	1	24	24	black_mb060.bmp	1	5	1.533499	5100.021353
048	2	1	25	25	black_mb081.bmp	1	4	1.580357	5101.670781
048	2	1	26	26	other_00734_941201_fa_edt.bmp	2	5	2.144566	5103.370184
048	2	1	27	27	black_mb055.bmp	1	4	1.455267	5105.636046
048	2	1	28	28	black_mb085.bmp	1	4	1.264924	5107.202158
048	2	1	29	29	other_00926_960627_fa_edt.bmp	2	5	1.762082	5108.585001
048	2	1	30	30	other_00666_941121_fa_edt_rot.bmp	2	4	1.687337	5110.467668
048	2	1	31	31	other_00810_941205_fb_edt_rot.bmp	2	4	2.040024	5112.267017
048	2	1	32	32	other_00733_941201_fa_edt.bmp	2	4	1.554813	5114.416269
048	2	1	33	33	black_mb072.bmp	1	4	4.768031	5116.082355
048	2	1	34	34	black_mb070.bmp	1	4	0.766925	5120.963952
048	2	1	35	35	other_00841_940307_fb_edt.bmp	2	5	1.099839	5121.846974
048	2	1	36	36	black_mb051.bmp	1	4	0.771611	5123.063197
048	2	1	37	37	white_mw084.bmp	0	5	2.616560	5123.946215
048	2	1	38	38	white_mw043.bmp	0	3	1.204131	5126.678595
048	2	1	39	39	white_mw041.bmp	0	2	1.279395	5127.994795
048	2	1	40	40	black_mb083.bmp	1	4	1.240555	5129.394300
048	2	1	41	41	black_mb073.bmp	1	3	6.778739	5130.743829
048	2	1	42	42	white_mw034.bmp	0	3	1.449090	5137.641380
048	2	1	43	43	white_mw096.bmp	0	2	0.954444	5139.207493
048	2	1	44	44	black_mb077.bmp	1	5	1.120595	5140.273769
048	2	1	45	45	other_00625_940928_fb_edt.bmp	2	5	2.599082	5141.506680
048	2	1	46	46	white_mw053.bmp	0	4	3.051221	5144.222384
048	2	1	47	47	black_mb079.bmp	1	4	1.557970	5147.387916
048	2	1	48	48	black_mb042.bmp	1	4	0.908075	5149.053993
048	2	1	49	49	black_mb092.bmp	1	5	1.115841	5150.070313
048	2	1	50	50	black_mb058.bmp	1	4	1.218967	5151.303197
048	2	1	51	51	white_mw078.bmp	0	5	1.317949	5152.636047
048	2	1	52	52	black_mb096.bmp	1	4	3.468718	5154.068898
048	2	1	53	53	white_mw082.bmp	0	3	1.894996	5157.650962
048	2	1	54	54	other_00724_941201_fa_edt.bmp	2	5	1.191046	5159.666918
048	2	1	55	55	white_mw044.bmp	0	5	6.243328	5160.966442
048	2	1	56	56	white_mw038.bmp	0	5	2.094357	5167.330869
048	2	1	57	57	white_mw063.bmp	0	2	3.222898	5169.546740
048	2	1	58	58	black_mb056.bmp	1	3	2.322625	5172.878892
048	2	1	59	59	other_00712_941205_fa_edt.bmp	2	7	2.841824	5175.311382
048	2	1	60	60	other_00668_941121_fa_edt.bmp	2	6	1.724594	5178.260328
048	2	1	61	61	black_mb046.bmp	1	5	1.060405	5180.093003
048	2	1	62	62	white_mw072.bmp	0	2	1.484942	5181.275932
048	2	1	63	63	white_mw029.bmp	0	2	1.013408	5182.875364
048	2	1	64	64	other_00911_960530_fa_edt.bmp	2	5	2.904391	5184.008285
048	2	1	65	65	black_mb088.bmp	1	4	1.017356	5187.023919
048	2	1	66	66	black_mb045.bmp	1	5	0.971773	5188.156832
048	2	1	67	67	other_00640_941031_fa_edt_rot.bmp	2	4	3.169315	5189.239778
048	2	1	68	68	white_mw075.bmp	0	3	2.878630	5192.521948
048	2	1	69	69	white_mw068.bmp	0	3	1.088103	5195.520887
048	2	2	01	70	other_00737_941201_fa_edt.bmp	2	3	3.256192	5202.752023
048	2	2	02	71	white_mw073.bmp	0	2	1.243562	5206.117136
048	2	2	03	72	other_00976_960627_fb_edt.bmp	2	4	1.740849	5207.483320
048	2	2	04	73	white_mw052.bmp	0	4	0.244027	5209.332665
048	2	2	05	74	white_mw077.bmp	0	5	1.524933	5209.699205
048	2	2	06	75	other_00921_960627_fb_edt.bmp	2	5	0.819513	5211.348622
048	2	2	07	76	black_mb063.bmp	1	4	1.230464	5212.281620
048	2	2	08	77	other_00912_960530_fa_edt.bmp	2	5	1.281186	5213.631130
048	2	2	09	78	other_00795_941205_fb_edt.bmp	2	6	0.921765	5215.030647
048	2	2	10	79	white_mw057.bmp	0	3	2.544745	5216.063619
048	2	2	11	80	black_mb040.bmp	1	4	1.566561	5218.729324
048	2	2	12	81	white_mw066.bmp	0	4	1.828371	5220.412074
048	2	2	13	82	white_mw042.bmp	0	5	1.198881	5222.361372
048	2	2	14	83	black_mb069.bmp	1	4	1.138644	5223.677587
048	2	2	15	84	other_00672_941121_fa_edt.bmp	2	5	2.776565	5224.927144
048	2	2	16	85	white_mw070.bmp	0	4	2.573845	5227.826115
048	2	2	17	86	white_mw049.bmp	0	5	1.227670	5230.508490
048	2	2	18	87	black_mb098.bmp	1	4	1.710137	5231.858026
048	2	2	19	88	other_00622_940928_fb_edt.bmp	2	4	1.565084	5233.690756
048	2	2	20	89	black_mb038.bmp	1	3	3.314485	5235.373468
048	2	2	21	90	white_mw074.bmp	0	2	3.210198	5238.805564
048	2	2	22	91	black_mb039.bmp	1	4	1.862288	5242.137716
048	2	2	23	92	other_00869_940307_fa_edt.bmp	2	5	1.327034	5244.120349
048	2	2	24	93	black_mb050.bmp	1	4	1.453835	5245.569836
048	2	2	25	94	black_mb057.bmp	1	4	0.975803	5247.135947
048	2	2	26	95	white_mw098.bmp	0	3	0.988709	5248.218867
048	2	2	27	96	other_00652_941031_fb_edt.bmp	2	4	1.776985	5249.318507
048	2	2	28	97	white_mw048.bmp	0	3	0.781819	5251.217833
048	2	2	29	98	black_mb094.bmp	1	3	1.425580	5252.117517
048	2	2	30	99	black_mb100.bmp	1	3	1.253187	5253.650289
048	2	2	31	100	white_mw046.bmp	0	2	1.462529	5255.016477
048	2	2	32	101	black_mb062.bmp	1	4	1.456219	5256.599267
048	2	2	33	102	white_mw095.bmp	0	2	1.353468	5258.165355
048	2	2	34	103	black_mb097.bmp	1	4	1.447753	5259.631509
048	2	2	35	104	other_00698_941121_fb_edt.bmp	2	6	1.425631	5261.197621
048	2	2	36	105	black_mb071.bmp	1	4	2.100284	5262.730462
048	2	2	37	106	white_mw035.bmp	0	5	1.356972	5264.946307
048	2	2	38	107	black_mb082.bmp	1	4	1.626236	5266.412463
048	2	2	39	108	white_mw056.bmp	0	3	1.997888	5268.145169
048	2	2	40	109	white_mw092.bmp	0	3	0.810103	5270.261092
048	2	2	41	110	black_mb061.bmp	1	4	1.116954	5271.194094
048	2	2	42	111	other_00710_960530_fa_edt.bmp	2	6	1.068038	5272.426979
048	2	2	43	112	black_mb044.bmp	1	4	1.356614	5273.609893
048	2	2	44	113	black_mb066.bmp	1	5	2.186395	5275.076043
048	2	2	45	114	other_00726_941201_fb_edt.bmp	2	6	1.039247	5277.375227
048	2	2	46	115	black_mb067.bmp	1	4	2.481595	5278.524813
048	2	2	47	116	other_00809_941205_fa_edt.bmp	2	5	1.274409	5281.123914
048	2	2	48	117	other_00740_941205_fa_edt.bmp	2	5	1.420138	5282.506760
048	2	2	49	118	black_mb047.bmp	1	4	1.055392	5284.039535
048	2	2	50	119	white_mw097.bmp	0	1	3.344894	5285.205800
048	2	2	51	120	other_00629_940928_fa_edt.bmp	2	5	1.887484	5288.671242
048	2	2	52	121	white_mw060.bmp	0	1	1.815513	5290.670588
048	2	2	53	122	other_00621_941121_fa_edt.bmp	2	4	2.875268	5292.603183
048	2	2	54	123	black_mb054.bmp	1	4	1.029065	5295.585450
048	2	2	55	124	white_mw033.bmp	0	3	1.062889	5296.735053
048	2	2	56	125	other_00933_960627_fa_edt.bmp	2	6	1.000468	5297.917969
048	2	2	57	126	black_mb065.bmp	1	4	1.132128	5299.034240
048	2	2	58	127	white_mw039.bmp	0	2	2.738571	5300.283783
048	2	2	59	128	other_00793_941205_fb_edt.bmp	2	4	1.617515	5303.132774
048	2	2	60	129	other_00880_960530_fa_edt.bmp	2	5	0.980234	5304.865508
048	2	2	61	130	black_mb093.bmp	1	5	2.233179	5305.965105
048	2	2	62	131	white_mw065.bmp	0	3	1.083970	5308.314288
048	2	2	63	132	white_mw085.bmp	0	4	1.452265	5309.513863
048	2	2	64	133	other_00797_941205_fb_edt.bmp	2	4	1.918008	5311.079974
048	2	2	65	134	other_00859_940307_fa_edt.bmp	2	2	1.797350	5313.112587
048	2	2	66	135	white_mw091.bmp	0	4	1.777115	5315.028579
048	2	2	67	136	other_00673_941121_fa_edt_rot.bmp	2	4	1.142070	5316.927905
048	2	2	68	137	white_mw071.bmp	0	2	1.812487	5318.177449
048	2	2	69	138	white_mw058.bmp	0	1	1.535336	5320.110111
