SUBJECT ID	CONDITION	BLOCK	TRIAL NUM	CUMULATIVE TRIAL NUM	STIM	PARTNER RACE	RESPONSE	RT	START TIME
044	1	1	01	01	other_00629_940928_fa_edt.bmp	2	7	5.321737	3262.032687
044	1	1	02	02	white_mw068.bmp	0	5	3.058093	3267.480363
044	1	1	03	03	white_mw058.bmp	0	3	3.299734	3270.662526
044	1	1	04	04	other_00740_941205_fa_edt.bmp	2	6	3.236305	3274.077976
044	1	1	05	05	white_mw029.bmp	0	3	2.367533	3277.426897
044	1	1	06	06	other_00666_941121_fa_edt_rot.bmp	2	3	2.541002	3279.909251
044	1	1	07	07	other_00726_941201_fb_edt.bmp	2	4	2.859681	3282.558321
044	1	1	08	08	other_00621_941121_fa_edt.bmp	2	5	2.869353	3285.540649
044	1	1	09	09	white_mw033.bmp	0	5	2.167042	3288.522908
044	1	1	10	10	white_mw034.bmp	0	6	2.196366	3290.805428
044	1	1	11	11	white_mw063.bmp	0	4	2.328976	3293.121332
044	1	1	12	12	black_mb058.bmp	1	5	2.583258	3295.570436
044	1	1	13	13	black_mb040.bmp	1	6	2.452238	3298.269496
044	1	1	14	14	other_00673_941121_fa_edt_rot.bmp	2	7	1.926499	3300.835257
044	1	1	15	15	black_mb089.bmp	1	7	1.733085	3302.884535
044	1	1	16	16	other_00710_960530_fa_edt.bmp	2	6	2.364153	3304.733873
044	1	1	17	17	white_mw048.bmp	0	5	2.225165	3307.216354
044	1	1	18	18	black_mb073.bmp	1	7	2.476647	3309.548867
044	1	1	19	19	other_00859_940307_fa_edt.bmp	2	7	4.773769	3312.147965
044	1	1	20	20	black_mb072.bmp	1	7	1.330998	3317.046247
044	1	1	21	21	other_00763_941201_fb_edt.bmp	2	6	2.785576	3318.495733
044	1	1	22	22	other_00866_940307_fa_edt.bmp	2	6	1.742424	3321.394711
044	1	1	23	23	white_mw099.bmp	0	3	2.557058	3323.244070
044	1	1	24	24	black_mb070.bmp	1	6	6.491239	3325.909779
044	1	1	25	25	other_00793_941205_fb_edt.bmp	2	6	2.580872	3332.524136
044	1	1	26	26	black_mb066.bmp	1	6	1.601749	3335.223205
044	1	1	27	27	black_mb099.bmp	1	8	1.709619	3336.939255
044	1	1	28	28	other_00869_940307_fa_edt.bmp	2	5	2.285469	3338.755294
044	1	1	29	29	other_00976_960627_fb_edt.bmp	2	5	1.718270	3341.154445
044	1	1	30	30	black_mb050.bmp	1	6	1.149542	3342.987170
044	1	1	31	31	other_00810_941205_fb_edt_rot.bmp	2	7	1.723374	3344.253338
044	1	1	32	32	white_mw035.bmp	0	8	1.834615	3346.086046
044	1	1	33	33	other_00797_941205_fb_edt.bmp	2	6	3.661249	3348.035346
044	1	1	34	34	other_00795_941205_fb_edt.bmp	2	7	1.991112	3351.817371
044	1	1	35	35	other_00623_940928_fb_edt.bmp	2	6	5.803884	3353.916619
044	1	1	36	36	white_mw066.bmp	0	7	1.585158	3359.831221
044	1	1	37	37	white_mw041.bmp	0	4	1.973706	3361.530625
044	1	1	38	38	other_00933_960627_fa_edt.bmp	2	7	2.723224	3363.613230
044	1	1	39	39	white_mw040.bmp	0	6	1.466673	3366.445567
044	1	1	40	40	other_00652_941031_fb_edt.bmp	2	7	1.579843	3368.028349
044	1	1	41	41	black_mb051.bmp	1	5	3.312335	3369.727752
044	1	1	42	42	other_00668_941121_fa_edt.bmp	2	4	1.312198	3373.159878
044	1	1	43	43	white_mw056.bmp	0	5	1.407354	3374.592712
044	1	1	44	44	black_mb049.bmp	1	5	1.315094	3376.108846
044	1	1	45	45	white_mw092.bmp	0	6	2.058271	3377.541676
044	1	1	46	46	other_00911_960530_fa_edt.bmp	2	6	1.236343	3379.707571
044	1	1	47	47	white_mw053.bmp	0	7	1.022823	3381.057106
044	1	1	48	48	black_mb092.bmp	1	5	1.433849	3382.190040
044	1	1	49	49	black_mb083.bmp	1	6	1.316347	3383.739503
044	1	1	50	50	white_mw084.bmp	0	6	1.587478	3385.172374
044	1	1	51	51	black_mb079.bmp	1	5	1.639988	3386.871723
044	1	1	52	52	black_mb081.bmp	1	5	1.354672	3388.621124
044	1	1	53	53	black_mb065.bmp	1	5	0.904471	3390.087272
044	1	1	54	54	white_mw089.bmp	0	8	1.728078	3391.103586
044	1	1	55	55	black_mb055.bmp	1	6	2.262717	3392.952924
044	1	1	56	56	white_mw047.bmp	0	7	1.368128	3395.335437
044	1	1	57	57	other_00622_940928_fb_edt.bmp	2	4	1.845369	3396.818239
044	1	1	58	58	white_mw091.bmp	0	6	1.615301	3398.784211
044	1	1	59	59	white_mw075.bmp	0	7	1.098554	3400.516950
044	1	1	60	60	black_mb094.bmp	1	5	1.466148	3401.733197
044	1	1	61	61	white_mw076.bmp	0	6	1.315415	3403.315964
044	1	1	62	62	black_mb054.bmp	1	5	2.298533	3404.748798
044	1	1	63	63	other_00912_960530_fa_edt.bmp	2	5	0.738792	3407.164604
044	1	1	64	64	white_mw077.bmp	0	6	1.145046	3408.014319
044	1	1	65	65	white_mw072.bmp	0	7	1.014743	3409.280525
044	1	1	66	66	other_00841_940307_fb_edt.bmp	2	6	2.889743	3410.413479
044	1	1	67	67	black_mb045.bmp	1	5	2.210767	3413.412425
044	1	1	68	68	other_00921_960627_fb_edt.bmp	2	6	1.342229	3415.744927
044	1	1	69	69	white_mw098.bmp	0	7	1.372729	3417.194425
044	1	2	01	70	white_mw051.bmp	0	6	1.730365	3424.708650
044	1	2	02	71	other_00712_941205_fa_edt.bmp	2	8	2.097045	3426.557817
044	1	2	03	72	black_mb098.bmp	1	6	1.553129	3428.773702
044	1	2	04	73	black_mb071.bmp	1	7	1.111085	3430.439786
044	1	2	05	74	other_00809_941205_fa_edt.bmp	2	8	1.574127	3431.672687
044	1	2	06	75	white_mw067.bmp	0	5	1.467342	3433.355415
044	1	2	07	76	black_mb077.bmp	1	4	1.356549	3434.938208
044	1	2	08	77	white_mw054.bmp	0	5	1.722262	3436.404362
044	1	2	09	78	black_mb062.bmp	1	5	1.401638	3438.237047
044	1	2	10	79	black_mb061.bmp	1	5	1.253460	3439.753185
044	1	2	11	80	white_mw082.bmp	0	5	1.175261	3441.119368
044	1	2	12	81	white_mw044.bmp	0	7	1.308346	3442.402255
044	1	2	13	82	black_mb096.bmp	1	6	1.340061	3443.818421
044	1	2	14	83	other_00828_940307_fa_edt.bmp	2	5	1.010660	3445.267900
044	1	2	15	84	white_mw074.bmp	0	5	0.965585	3446.400839
044	1	2	16	85	white_mw085.bmp	0	7	1.554684	3447.483778
044	1	2	17	86	black_mb038.bmp	1	5	1.760576	3449.149879
044	1	2	18	87	black_mb067.bmp	1	6	1.117836	3451.032560
044	1	2	19	88	white_mw049.bmp	0	7	1.236908	3452.265458
044	1	2	20	89	other_00672_941121_fa_edt.bmp	2	6	1.919376	3453.614998
044	1	2	21	90	black_mb068.bmp	1	7	1.054708	3455.647595
044	1	2	22	91	other_00640_941031_fa_edt_rot.bmp	2	3	2.120354	3456.813878
044	1	2	23	92	black_mb100.bmp	1	6	2.159862	3459.046403
044	1	2	24	93	white_mw073.bmp	0	6	2.493225	3461.328945
044	1	2	25	94	black_mb039.bmp	1	6	1.077393	3463.944697
044	1	2	26	95	black_mb057.bmp	1	5	1.797799	3465.144277
044	1	2	27	96	black_mb059.bmp	1	7	1.161785	3467.060270
044	1	2	28	97	black_mb097.bmp	1	6	1.334845	3468.343151
044	1	2	29	98	black_mb047.bmp	1	5	1.317310	3469.792629
044	1	2	30	99	other_00926_960627_fa_edt.bmp	2	5	1.356462	3471.225479
044	1	2	31	100	other_00733_941201_fa_edt.bmp	2	5	1.018315	3472.691632
044	1	2	32	101	other_00737_941201_fa_edt.bmp	2	7	1.797385	3473.824563
044	1	2	33	102	black_mb056.bmp	1	5	0.993280	3475.740558
044	1	2	34	103	white_mw065.bmp	0	6	1.357701	3476.840159
044	1	2	35	104	black_mb044.bmp	1	5	1.027373	3478.306325
044	1	2	36	105	other_00734_941201_fa_edt.bmp	2	7	1.109917	3479.455917
044	1	2	37	106	white_mw097.bmp	0	5	1.645618	3480.672140
044	1	2	38	107	white_mw039.bmp	0	8	2.007512	3482.438197
044	1	2	39	108	black_mb042.bmp	1	7	1.867519	3484.554120
044	1	2	40	109	black_mb069.bmp	1	7	1.756848	3486.536777
044	1	2	41	110	white_mw052.bmp	0	6	2.706757	3488.402783
044	1	2	42	111	other_00880_960530_fa_edt.bmp	2	8	1.467080	3491.218447
044	1	2	43	112	black_mb088.bmp	1	5	0.916264	3492.801229
044	1	2	44	113	white_mw043.bmp	0	7	1.195255	3493.834209
044	1	2	45	114	black_mb093.bmp	1	7	1.886990	3495.150423
044	1	2	46	115	black_mb082.bmp	1	7	1.159679	3497.149700
044	1	2	47	116	black_mb085.bmp	1	6	1.149444	3498.415930
044	1	2	48	117	other_00698_941121_fb_edt.bmp	2	8	1.315131	3499.682160
044	1	2	49	118	other_01207_940128_fb_edt.bmp	2	6	1.874302	3501.114985
044	1	2	50	119	white_mw080.bmp	0	6	1.171627	3503.097627
044	1	2	51	120	black_mb060.bmp	1	6	0.960696	3504.380510
044	1	2	52	121	white_mw070.bmp	0	8	1.421735	3505.463456
044	1	2	53	122	white_mw078.bmp	0	8	0.888853	3506.996259
044	1	2	54	123	white_mw042.bmp	0	6	1.273218	3507.995873
044	1	2	55	124	white_mw060.bmp	0	7	1.530380	3509.378756
044	1	2	56	125	white_mw046.bmp	0	5	1.320894	3511.028164
044	1	2	57	126	white_mw096.bmp	0	5	1.088108	3512.461009
044	1	2	58	127	other_00656_941121_fb_edt.bmp	2	5	1.056358	3513.660567
044	1	2	59	128	black_mb046.bmp	1	5	0.970178	3514.826846
044	1	2	60	129	white_mw071.bmp	0	6	1.063202	3515.909798
044	1	2	61	130	other_00724_941201_fa_edt.bmp	2	5	2.560227	3517.092716
044	1	2	62	131	black_mb063.bmp	1	6	1.469743	3519.775111
044	1	2	63	132	black_mb078.bmp	1	9	3.270935	3521.357887
044	1	2	64	133	white_mw057.bmp	0	5	3.656685	3524.740031
044	1	2	65	134	black_mb075.bmp	1	5	1.635322	3528.505379
044	1	2	66	135	white_mw038.bmp	0	4	1.318022	3530.254753
044	1	2	67	136	other_00625_940928_fb_edt.bmp	2	7	2.165043	3531.687602
044	1	2	68	137	white_mw095.bmp	0	6	1.306494	3533.970129
044	1	2	69	138	black_mb064.bmp	1	6	1.594269	3535.386298
