SUBJECT ID	CONDITION	BLOCK	TRIAL NUM	CUMULATIVE TRIAL NUM	STIM	INK	MASK	STIM RACE	RESPONSE	RT	START TIME
999	1	80	01	01	black_mb017.bmp	pd_sm_inkblot_170816_1750_095.png	pdPR_noiseMask_170814_1952_017.png	1	1	1.195277	3720.836740
999	1	80	02	02	white_00248_940128_fa_edt.bmp	pd_sm_inkblot_170816_1750_010.png	pdPR_noiseMask_170814_1952_027.png	0	1	0.767749	3722.336346
999	1	80	03	03	other_00110_931230_fb_edt.bmp	pd_sm_inkblot_170816_1750_075.png	pdPR_noiseMask_170814_1952_032.png	2	1	0.405091	3723.419180
999	1	1	01	01	other_00596_940928_fa_edt.bmp	pd_sm_inkblot_170816_1750_080.png	pdPR_noiseMask_170814_1952_081.png	2	1	0.955295	3734.765241
999	1	1	02	02	other_00545_940519_fa_edt.bmp	pd_sm_inkblot_170816_1750_041.png	pdPR_noiseMask_170814_1952_091.png	2	0	0.603621	3735.948128
999	1	1	03	03	black_00857_940307_fa_edt.bmp	pd_sm_inkblot_170816_1750_071.png	pdPR_noiseMask_170814_1952_063.png	1	0	0.706841	3736.781171
999	1	1	04	04	other_00096_940128_fb_edt.bmp	pd_sm_inkblot_170816_1750_004.png	pdPR_noiseMask_170814_1952_028.png	2	1	0.469512	3737.714180
999	1	1	05	05	white_00874_940307_fa_edt.bmp	pd_sm_inkblot_170816_1750_002.png	pdPR_noiseMask_170814_1952_079.png	0	1	0.305773	3738.413923
999	1	1	06	06	other_00604_940928_fb_edt.bmp	pd_sm_inkblot_170816_1750_021.png	pdPR_noiseMask_170814_1952_019.png	2	1	0.260603	3738.947075
999	1	1	07	07	white_00577_940928_fa_edt.bmp	pd_sm_inkblot_170816_1750_063.png	pdPR_noiseMask_170814_1952_008.png	0	1	0.105421	3739.430249
999	1	1	08	08	black_00677_941121_fa_edt.bmp	pd_sm_inkblot_170816_1750_060.png	pdPR_noiseMask_170814_1952_071.png	1	1	0.044146	3739.763470
999	1	1	09	09	black_mb025.bmp	pd_sm_inkblot_170816_1750_087.png	pdPR_noiseMask_170814_1952_055.png	1	1	0.201614	3740.030028
999	1	1	10	10	other_00584_940928_fa_edt.bmp	pd_sm_inkblot_170816_1750_006.png	pdPR_noiseMask_170814_1952_034.png	2	1	0.136391	3740.463225
999	1	1	11	11	black_00586_940928_fa_edt.bmp	pd_sm_inkblot_170816_1750_065.png	pdPR_noiseMask_170814_1952_006.png	1	1	0.065869	3740.829764
999	1	1	12	12	other_00566_940928_fb_edt.bmp	pd_sm_inkblot_170816_1750_018.png	pdPR_noiseMask_170814_1952_015.png	2	1	0.069925	3741.129662
999	1	1	13	13	white_mw009.bmp	pd_sm_inkblot_170816_1750_045.png	pdPR_noiseMask_170814_1952_055.png	0	1	0.026100	3741.429553
999	1	1	14	14	black_mb002.bmp	pd_sm_inkblot_170816_1750_092.png	pdPR_noiseMask_170814_1952_086.png	1	0	0.256044	3741.679469
999	1	1	15	15	white_00109_931230_fa_edt.bmp	pd_sm_inkblot_170816_1750_028.png	pdPR_noiseMask_170814_1952_001.png	0	0	0.164914	3742.162668
999	1	1	16	16	black_mb023.bmp	pd_sm_inkblot_170816_1750_031.png	pdPR_noiseMask_170814_1952_049.png	1	0	0.197133	3742.562497
999	1	1	17	17	black_00257_940128_fa_edt.bmp	pd_sm_inkblot_170816_1750_000.png	pdPR_noiseMask_170814_1952_018.png	1	1	0.387833	3742.995679
999	1	1	18	18	white_mw019.bmp	pd_sm_inkblot_170816_1750_058.png	pdPR_noiseMask_170814_1952_093.png	0	1	0.203590	3743.612116
999	1	1	19	19	black_mb013.bmp	pd_sm_inkblot_170816_1750_061.png	pdPR_noiseMask_170814_1952_003.png	1	1	0.146326	3744.045298
999	1	1	20	20	white_00898_960530_fa_edt.bmp	pd_sm_inkblot_170816_1750_023.png	pdPR_noiseMask_170814_1952_035.png	0	1	0.099025	3744.428518
999	1	1	21	21	white_00659_941121_fa_edt.bmp	pd_sm_inkblot_170816_1750_096.png	pdPR_noiseMask_170814_1952_074.png	0	1	0.301807	3744.761773
999	1	1	22	22	black_mb010.bmp	pd_sm_inkblot_170816_1750_006.png	pdPR_noiseMask_170814_1952_012.png	1	1	0.192991	3745.294878
999	1	1	23	23	white_00597_940928_fb_edt.bmp	pd_sm_inkblot_170816_1750_004.png	pdPR_noiseMask_170814_1952_098.png	0	1	0.208132	3745.711387
999	1	1	24	24	other_00246_940128_fa_edt.bmp	pd_sm_inkblot_170816_1750_063.png	pdPR_noiseMask_170814_1952_010.png	2	1	0.191003	3746.144582
999	1	1	25	25	other_00580_940928_fa_edt.bmp	pd_sm_inkblot_170816_1750_017.png	pdPR_noiseMask_170814_1952_009.png	2	1	0.214429	3746.561110
999	1	1	26	26	black_mb001.bmp	pd_sm_inkblot_170816_1750_058.png	pdPR_noiseMask_170814_1952_008.png	1	1	0.124418	3747.010949
999	1	1	27	27	white_00283_940422_fa_edt.bmp	pd_sm_inkblot_170816_1750_086.png	pdPR_noiseMask_170814_1952_011.png	0	1	0.126678	3747.360828
999	1	1	28	28	white_00340_940422_fa_edt.bmp	pd_sm_inkblot_170816_1750_020.png	pdPR_noiseMask_170814_1952_015.png	0	1	0.256807	3747.710705
999	1	1	29	29	other_00611_940928_fa_edt_rot.bmp	pd_sm_inkblot_170816_1750_001.png	pdPR_noiseMask_170814_1952_035.png	2	1	0.165609	3748.193866
999	1	1	30	30	other_00617_940928_fb_edt.bmp	pd_sm_inkblot_170816_1750_028.png	pdPR_noiseMask_170814_1952_042.png	2	1	0.333738	3748.593731
999	1	2	01	31	white_00602_940928_fb_edt.bmp	pd_sm_inkblot_170816_1750_065.png	pdPR_noiseMask_170814_1952_006.png	0	0	1.063876	3755.191443
999	1	2	02	32	white_mw003.bmp	pd_sm_inkblot_170816_1750_089.png	pdPR_noiseMask_170814_1952_002.png	0	0	0.268403	3756.490986
999	1	2	03	33	black_00488_940519_fb_edt.bmp	pd_sm_inkblot_170816_1750_082.png	pdPR_noiseMask_170814_1952_005.png	1	0	0.136548	3756.990804
999	1	2	04	34	other_00132_931230_fb_edt.bmp	pd_sm_inkblot_170816_1750_071.png	pdPR_noiseMask_170814_1952_006.png	2	0	0.129951	3757.357355
999	1	2	05	35	black_mb014.bmp	pd_sm_inkblot_170816_1750_018.png	pdPR_noiseMask_170814_1952_029.png	1	0	0.219463	3757.723891
999	1	2	06	36	other_00237_940128_fb_edt.bmp	pd_sm_inkblot_170816_1750_092.png	pdPR_noiseMask_170814_1952_005.png	2	1	0.241496	3758.173720
999	1	2	07	37	black_mb021.bmp	pd_sm_inkblot_170816_1750_054.png	pdPR_noiseMask_170814_1952_020.png	1	1	0.118918	3758.640244
999	1	2	08	38	white_mw028.bmp	pd_sm_inkblot_170816_1750_081.png	pdPR_noiseMask_170814_1952_033.png	0	1	0.073147	3758.990118
999	1	2	09	39	black_mb030.bmp	pd_sm_inkblot_170816_1750_020.png	pdPR_noiseMask_170814_1952_050.png	1	1	0.085276	3759.290014
999	1	2	10	40	black_00716_941201_fa_edt_rot.bmp	pd_sm_inkblot_170816_1750_055.png	pdPR_noiseMask_170814_1952_009.png	1	1	0.040600	3759.606570
999	1	2	11	41	other_00575_940928_fb_edt.bmp	pd_sm_inkblot_170816_1750_083.png	pdPR_noiseMask_170814_1952_067.png	2	1	0.118158	3759.873144
999	1	2	12	42	black_39M_NE_C.bmp	pd_sm_inkblot_170816_1750_004.png	pdPR_noiseMask_170814_1952_040.png	1	1	0.272820	3760.223022
999	1	2	13	43	white_00972_960627_fa_edt.bmp	pd_sm_inkblot_170816_1750_098.png	pdPR_noiseMask_170814_1952_018.png	0	0	0.124462	3760.722834
999	1	2	14	44	other_00205_940128_fa_edt.bmp	pd_sm_inkblot_170816_1750_096.png	pdPR_noiseMask_170814_1952_089.png	2	0	0.134416	3761.072715
999	1	2	15	45	other_00601_940928_fb_edt.bmp	pd_sm_inkblot_170816_1750_070.png	pdPR_noiseMask_170814_1952_086.png	2	1	0.184011	3761.439267
999	1	2	16	46	white_mw004.bmp	pd_sm_inkblot_170816_1750_001.png	pdPR_noiseMask_170814_1952_085.png	0	1	0.223511	3761.855778
999	1	2	17	47	white_mw025.bmp	pd_sm_inkblot_170816_1750_006.png	pdPR_noiseMask_170814_1952_019.png	0	1	0.189494	3762.305637
999	1	2	18	48	white_00223_940128_fb_edt.bmp	pd_sm_inkblot_170816_1750_071.png	pdPR_noiseMask_170814_1952_009.png	0	1	0.197101	3762.722154
999	1	2	19	49	black_00467_940519_fb_edt.bmp	pd_sm_inkblot_170816_1750_063.png	pdPR_noiseMask_170814_1952_084.png	1	1	0.219806	3763.155338
999	1	2	20	50	other_00619_940928_fa_edt.bmp	pd_sm_inkblot_170816_1750_044.png	pdPR_noiseMask_170814_1952_002.png	2	1	0.106000	3763.605180
999	1	2	21	51	other_00029_940128_fa_edt.bmp	pd_sm_inkblot_170816_1750_067.png	pdPR_noiseMask_170814_1952_020.png	2	1	0.012786	3763.938403
999	1	2	22	52	black_mb035.bmp	pd_sm_inkblot_170816_1750_001.png	pdPR_noiseMask_170814_1952_059.png	1	1	0.171557	3764.171651
999	1	2	23	53	white_00766_941201_fb_edt.bmp	pd_sm_inkblot_170816_1750_037.png	pdPR_noiseMask_170814_1952_091.png	0	1	0.443696	3764.571511
999	1	2	24	54	white_mw018.bmp	pd_sm_inkblot_170816_1750_080.png	pdPR_noiseMask_170814_1952_031.png	0	1	0.209220	3765.237933
999	1	2	25	55	black_mb033.bmp	pd_sm_inkblot_170816_1750_044.png	pdPR_noiseMask_170814_1952_028.png	1	1	0.087961	3765.671113
999	1	2	26	56	other_00058_931230_fa_edt.bmp	pd_sm_inkblot_170816_1750_042.png	pdPR_noiseMask_170814_1952_085.png	2	1	0.003486	3765.987686
999	1	2	27	57	other_00587_940928_fa_edt.bmp	pd_sm_inkblot_170816_1750_002.png	pdPR_noiseMask_170814_1952_049.png	2	1	0.418272	3766.220923
999	1	2	28	58	black_00183_940128_fb_edt.bmp	pd_sm_inkblot_170816_1750_067.png	pdPR_noiseMask_170814_1952_095.png	1	1	0.280335	3766.870714
999	1	2	29	59	other_00261_940128_fb_edt.bmp	pd_sm_inkblot_170816_1750_056.png	pdPR_noiseMask_170814_1952_093.png	2	1	0.171960	3767.387184
999	1	2	30	60	white_00050_931230_fa_edt.bmp	pd_sm_inkblot_170816_1750_038.png	pdPR_noiseMask_170814_1952_084.png	0	1	0.148010	3767.787045
999	1	3	01	61	black_mb019.bmp	pd_sm_inkblot_170816_1750_076.png	pdPR_noiseMask_170814_1952_031.png	1	0	0.229425	3774.201496
999	1	3	02	62	white_00960_960627_fb_edt.bmp	pd_sm_inkblot_170816_1750_029.png	pdPR_noiseMask_170814_1952_049.png	0	1	0.186886	3774.668001
999	1	3	03	63	black_mb005.bmp	pd_sm_inkblot_170816_1750_096.png	pdPR_noiseMask_170814_1952_042.png	1	1	0.058449	3775.084527
999	1	3	04	64	other_00618_940928_fb_edt.bmp	pd_sm_inkblot_170816_1750_013.png	pdPR_noiseMask_170814_1952_079.png	2	1	0.223239	3775.367759
999	1	3	05	65	white_00129_931230_fb_edt.bmp	pd_sm_inkblot_170816_1750_011.png	pdPR_noiseMask_170814_1952_028.png	0	0	0.277345	3775.817617
999	1	3	06	66	white_00658_941121_fb_edt.bmp	pd_sm_inkblot_170816_1750_017.png	pdPR_noiseMask_170814_1952_066.png	0	0	0.161445	3776.317423
999	1	3	07	67	other_00247_941121_fb_edt.bmp	pd_sm_inkblot_170816_1750_038.png	pdPR_noiseMask_170814_1952_041.png	2	1	0.058349	3776.700628
999	1	3	08	68	other_00490_940519_fb_edt.bmp	pd_sm_inkblot_170816_1750_045.png	pdPR_noiseMask_170814_1952_040.png	2	1	0.015099	3776.983864
999	1	3	09	69	black_00358_940422_fb_edt.bmp	pd_sm_inkblot_170816_1750_089.png	pdPR_noiseMask_170814_1952_002.png	1	1	0.157199	3777.233780
999	1	3	10	70	white_mw015.bmp	pd_sm_inkblot_170816_1750_000.png	pdPR_noiseMask_170814_1952_034.png	0	0	0.085977	3777.616978
999	1	3	11	71	white_00764_941201_fa_edt.bmp	pd_sm_inkblot_170816_1750_082.png	pdPR_noiseMask_170814_1952_005.png	0	0	0.009462	3777.933520
999	1	3	12	72	other_00282_940422_fb_edt.bmp	pd_sm_inkblot_170816_1750_058.png	pdPR_noiseMask_170814_1952_059.png	2	1	0.161743	3778.333380
999	1	3	13	73	black_mb032.bmp	pd_sm_inkblot_170816_1750_070.png	pdPR_noiseMask_170814_1952_015.png	1	1	0.354299	3778.716587
999	1	3	14	74	white_mw001.bmp	pd_sm_inkblot_170816_1750_055.png	pdPR_noiseMask_170814_1952_003.png	0	1	0.171133	3779.299725
999	1	3	15	75	other_00139_931230_fb_edt.bmp	pd_sm_inkblot_170816_1750_066.png	pdPR_noiseMask_170814_1952_012.png	2	0	0.203313	3779.699572
999	1	3	16	76	black_mb008.bmp	pd_sm_inkblot_170816_1750_028.png	pdPR_noiseMask_170814_1952_033.png	1	1	0.026150	3780.132769
999	1	3	17	77	black_mb029.bmp	pd_sm_inkblot_170816_1750_038.png	pdPR_noiseMask_170814_1952_085.png	1	1	0.152218	3780.382668
999	1	3	18	78	white_mw006.bmp	pd_sm_inkblot_170816_1750_061.png	pdPR_noiseMask_170814_1952_010.png	0	0	0.281018	3780.765882
999	1	3	19	79	white_mw008.bmp	pd_sm_inkblot_170816_1750_060.png	pdPR_noiseMask_170814_1952_059.png	0	0	0.108467	3781.282402
999	1	3	20	80	other_00570_940928_fa_edt.bmp	pd_sm_inkblot_170816_1750_023.png	pdPR_noiseMask_170814_1952_074.png	2	1	0.191287	3781.615574
999	1	3	21	81	black_38M_NE_C.bmp	pd_sm_inkblot_170816_1750_036.png	pdPR_noiseMask_170814_1952_048.png	1	1	0.126741	3782.032096
999	1	3	22	82	black_00453_940422_fb_edt.bmp	pd_sm_inkblot_170816_1750_094.png	pdPR_noiseMask_170814_1952_021.png	1	0	0.272916	3782.381987
999	1	3	23	83	other_00614_940928_fa_edt.bmp	pd_sm_inkblot_170816_1750_065.png	pdPR_noiseMask_170814_1952_021.png	2	0	0.244992	3782.881818
999	1	3	24	84	other_00588_940928_fa_edt.bmp	pd_sm_inkblot_170816_1750_020.png	pdPR_noiseMask_170814_1952_048.png	2	1	0.170576	3783.348317
999	1	3	25	85	black_mb018.bmp	pd_sm_inkblot_170816_1750_045.png	pdPR_noiseMask_170814_1952_001.png	1	1	0.146679	3783.748180
999	1	3	26	86	other_00122_931230_fa_edt.bmp	pd_sm_inkblot_170816_1750_030.png	pdPR_noiseMask_170814_1952_050.png	2	1	0.091476	3784.131378
999	1	3	27	87	white_mw024.bmp	pd_sm_inkblot_170816_1750_066.png	pdPR_noiseMask_170814_1952_086.png	0	0	0.134787	3784.447936
999	1	3	28	88	black_00917_960620_fa_edt.bmp	pd_sm_inkblot_170816_1750_032.png	pdPR_noiseMask_170814_1952_089.png	1	0	0.096378	3784.814475
999	1	3	29	89	white_mw002.bmp	pd_sm_inkblot_170816_1750_070.png	pdPR_noiseMask_170814_1952_095.png	0	1	0.139175	3785.147678
999	1	3	30	90	other_00119_931230_fb_edt.bmp	pd_sm_inkblot_170816_1750_060.png	pdPR_noiseMask_170814_1952_029.png	2	1	0.004896	3785.514268
999	1	4	01	91	white_00591_940928_fa_edt.bmp	pd_sm_inkblot_170816_1750_083.png	pdPR_noiseMask_170814_1952_040.png	0	1	0.291994	3791.778718
999	1	4	02	92	white_00120_931230_fa_edt.bmp	pd_sm_inkblot_170816_1750_067.png	pdPR_noiseMask_170814_1952_064.png	0	1	0.095299	3792.295245
999	1	4	03	93	other_00610_940928_fa_edt.bmp	pd_sm_inkblot_170816_1750_098.png	pdPR_noiseMask_170814_1952_003.png	2	1	0.194938	3792.611766
999	1	4	04	94	black_mb011.bmp	pd_sm_inkblot_170816_1750_086.png	pdPR_noiseMask_170814_1952_079.png	1	1	0.586370	3793.028286
999	1	4	05	95	other_00318_940422_fb_edt.bmp	pd_sm_inkblot_170816_1750_029.png	pdPR_noiseMask_170814_1952_073.png	2	1	0.145966	3793.844671
999	1	4	06	96	white_00657_941121_fa_edt.bmp	pd_sm_inkblot_170816_1750_076.png	pdPR_noiseMask_170814_1952_029.png	0	0	0.139448	3794.211191
999	1	4	07	97	white_00807_941205_fb_edt.bmp	pd_sm_inkblot_170816_1750_087.png	pdPR_noiseMask_170814_1952_081.png	0	0	0.140869	3794.577751
999	1	4	08	98	other_00512_940519_fa_edt.bmp	pd_sm_inkblot_170816_1750_052.png	pdPR_noiseMask_170814_1952_031.png	2	0	0.102459	3794.944287
999	1	4	09	99	white_mw022.bmp	pd_sm_inkblot_170816_1750_094.png	pdPR_noiseMask_170814_1952_090.png	0	1	0.049089	3795.277509
999	1	4	10	100	black_00108_940128_fb_edt.bmp	pd_sm_inkblot_170816_1750_002.png	pdPR_noiseMask_170814_1952_064.png	1	1	0.181888	3795.560802
999	1	4	11	101	white_00253_940128_fa_edt.bmp	pd_sm_inkblot_170816_1750_021.png	pdPR_noiseMask_170814_1952_057.png	0	1	0.133368	3795.977247
999	1	4	12	102	other_00046_931230_fa_edt.bmp	pd_sm_inkblot_170816_1750_089.png	pdPR_noiseMask_170814_1952_064.png	2	1	0.110747	3796.343806
999	1	4	13	103	black_00332_940422_fa_edt_contrast.bmp	pd_sm_inkblot_170816_1750_081.png	pdPR_noiseMask_170814_1952_034.png	1	1	0.137651	3796.677027
999	1	4	14	104	other_00070_941121_fb_edt.bmp	pd_sm_inkblot_170816_1750_055.png	pdPR_noiseMask_170814_1952_071.png	2	1	0.235044	3797.043559
999	1	4	15	105	white_mw016.bmp	pd_sm_inkblot_170816_1750_032.png	pdPR_noiseMask_170814_1952_012.png	0	0	0.272591	3797.510109
999	1	4	16	106	white_00816_941205_fa_edt.bmp	pd_sm_inkblot_170816_1750_054.png	pdPR_noiseMask_170814_1952_089.png	0	0	0.116677	3798.009889
999	1	4	17	107	white_mw010.bmp	pd_sm_inkblot_170816_1750_056.png	pdPR_noiseMask_170814_1952_041.png	0	0	0.142805	3798.359770
999	1	4	18	108	black_00558_940519_fa_edt.bmp	pd_sm_inkblot_170816_1750_056.png	pdPR_noiseMask_170814_1952_090.png	1	0	0.008364	3798.726293
999	1	4	19	109	black_mb006.bmp	pd_sm_inkblot_170816_1750_023.png	pdPR_noiseMask_170814_1952_041.png	1	1	0.286984	3798.959559
999	1	4	20	110	black_00801_941205_fa_edt.bmp	pd_sm_inkblot_170816_1750_030.png	pdPR_noiseMask_170814_1952_058.png	1	1	0.170466	3799.476081
999	1	4	21	111	other_00114_931230_fa_edt.bmp	pd_sm_inkblot_170816_1750_061.png	pdPR_noiseMask_170814_1952_098.png	2	1	0.146509	3799.875918
999	1	4	22	112	black_00746_941201_fb_edt.bmp	pd_sm_inkblot_170816_1750_042.png	pdPR_noiseMask_170814_1952_057.png	1	1	0.123380	3800.259106
999	1	4	23	113	black_00531_940519_fa_edt.bmp	pd_sm_inkblot_170816_1750_074.png	pdPR_noiseMask_170814_1952_011.png	1	1	0.221507	3800.608984
999	1	4	24	114	other_00216_940128_fa_edt.bmp	pd_sm_inkblot_170816_1750_082.png	pdPR_noiseMask_170814_1952_008.png	2	0	0.059681	3801.058828
999	1	4	25	115	other_00178_931230_fa_edt.bmp	pd_sm_inkblot_170816_1750_087.png	pdPR_noiseMask_170814_1952_033.png	2	0	0.112364	3801.342062
999	1	4	26	116	black_00964_960627_fb_edt.bmp	pd_sm_inkblot_170816_1750_052.png	pdPR_noiseMask_170814_1952_010.png	1	0	0.139394	3801.675266
999	1	4	27	117	other_00583_940928_fa_edt.bmp	pd_sm_inkblot_170816_1750_094.png	pdPR_noiseMask_170814_1952_090.png	2	0	0.212551	3802.041823
999	1	4	28	118	black_mb026.bmp	pd_sm_inkblot_170816_1750_098.png	pdPR_noiseMask_170814_1952_073.png	1	1	0.067440	3802.475040
999	1	4	29	119	other_00116_931230_fa_edt.bmp	pd_sm_inkblot_170816_1750_031.png	pdPR_noiseMask_170814_1952_058.png	2	1	0.231627	3802.774897
999	1	4	30	120	white_00519_940519_fb_edt.bmp	pd_sm_inkblot_170816_1750_074.png	pdPR_noiseMask_170814_1952_067.png	0	0	0.341076	3803.241390
999	1	5	01	121	black_mb004.bmp	pd_sm_inkblot_170816_1750_013.png	pdPR_noiseMask_170814_1952_091.png	1	0	0.415282	3809.839108
999	1	5	02	122	white_00785_941205_fb_edt.bmp	pd_sm_inkblot_170816_1750_036.png	pdPR_noiseMask_170814_1952_021.png	0	1	0.317298	3810.488920
999	1	5	03	123	other_00616_940928_fa_edt_rot.bmp	pd_sm_inkblot_170816_1750_032.png	pdPR_noiseMask_170814_1952_057.png	2	1	0.063685	3811.038678
999	1	5	04	124	black_mb020.bmp	pd_sm_inkblot_170816_1750_037.png	pdPR_noiseMask_170814_1952_074.png	1	1	0.011657	3811.338657
999	1	5	05	125	white_mw012.bmp	pd_sm_inkblot_170816_1750_013.png	pdPR_noiseMask_170814_1952_042.png	0	1	0.058674	3811.571907
999	1	5	06	126	other_00461_940422_fb_edt.bmp	pd_sm_inkblot_170816_1750_036.png	pdPR_noiseMask_170814_1952_018.png	2	1	0.055281	3811.855076
999	1	5	07	127	other_00578_940928_fa_edt.bmp	pd_sm_inkblot_170816_1750_076.png	pdPR_noiseMask_170814_1952_055.png	2	1	0.044000	3812.138309
999	1	5	08	128	black_mb031.bmp	pd_sm_inkblot_170816_1750_041.png	pdPR_noiseMask_170814_1952_093.png	1	1	0.009428	3812.404879
999	1	5	09	129	other_00234_940128_fb_edt.bmp	pd_sm_inkblot_170816_1750_054.png	pdPR_noiseMask_170814_1952_001.png	2	1	0.024210	3812.638135
999	1	5	10	130	white_00897_960530_fb_edt.bmp	pd_sm_inkblot_170816_1750_041.png	pdPR_noiseMask_170814_1952_014.png	0	0	0.286295	3812.888050
999	1	5	11	131	white_00757_941201_fa_edt.bmp	pd_sm_inkblot_170816_1750_042.png	pdPR_noiseMask_170814_1952_063.png	0	0	0.001727	3813.404540
999	1	5	12	132	white_00199_940128_fa_edt.bmp	pd_sm_inkblot_170816_1750_018.png	pdPR_noiseMask_170814_1952_050.png	0	0	0.000389	3813.637789
999	1	5	13	133	black_mb016.bmp	pd_sm_inkblot_170816_1750_066.png	pdPR_noiseMask_170814_1952_035.png	1	0	0.199230	3813.871051
999	1	5	14	134	other_00193_940128_fa_edt.bmp	pd_sm_inkblot_170816_1750_074.png	pdPR_noiseMask_170814_1952_084.png	2	1	0.046048	3814.304233
999	1	5	15	135	black_mb015.bmp	pd_sm_inkblot_170816_1750_011.png	pdPR_noiseMask_170814_1952_014.png	1	1	0.042819	3814.587465
999	1	5	16	136	black_mb009.bmp	pd_sm_inkblot_170816_1750_029.png	pdPR_noiseMask_170814_1952_019.png	1	1	0.008235	3814.854040
999	1	5	17	137	other_00383_941031_fa_edt_rot.bmp	pd_sm_inkblot_170816_1750_000.png	pdPR_noiseMask_170814_1952_014.png	2	1	0.014983	3815.087292
999	1	5	18	138	white_mw013.bmp	pd_sm_inkblot_170816_1750_030.png	pdPR_noiseMask_170814_1952_048.png	0	1	0.021037	3815.337200
999	1	5	19	139	other_00516_940519_fb_edt.bmp	pd_sm_inkblot_170816_1750_086.png	pdPR_noiseMask_170814_1952_066.png	2	1	0.011054	3815.587114
999	1	5	20	140	other_00097_931230_fa_edt.bmp	pd_sm_inkblot_170816_1750_011.png	pdPR_noiseMask_170814_1952_011.png	2	1	0.001900	3815.820372
999	1	5	21	141	black_mb027.bmp	pd_sm_inkblot_170816_1750_017.png	pdPR_noiseMask_170814_1952_081.png	1	1	0.008631	3816.053625
999	1	5	22	142	black_00929_960627_fa_edt.bmp	pd_sm_inkblot_170816_1750_080.png	pdPR_noiseMask_170814_1952_066.png	1	0	0.063329	3816.286857
999	1	5	23	143	black_mb003.bmp	pd_sm_inkblot_170816_1750_083.png	pdPR_noiseMask_170814_1952_067.png	1	0	0.187425	3816.586775
999	1	5	24	144	other_00582_940928_fb_edt.bmp	pd_sm_inkblot_170816_1750_081.png	pdPR_noiseMask_170814_1952_063.png	2	1	0.146806	3817.003289
999	1	5	25	145	white_00341_940422_fa_edt.bmp	pd_sm_inkblot_170816_1750_052.png	pdPR_noiseMask_170814_1952_071.png	0	1	0.211642	3817.386490
999	1	5	26	146	white_00761_941201_fb_edt.bmp	pd_sm_inkblot_170816_1750_092.png	pdPR_noiseMask_170814_1952_020.png	0	1	0.018545	3817.819660
999	1	5	27	147	other_00415_940422_fb_edt_rot.bmp	pd_sm_inkblot_170816_1750_037.png	pdPR_noiseMask_170814_1952_095.png	2	1	0.008666	3818.069584
999	1	5	28	148	white_00299_940422_fa_edt.bmp	pd_sm_inkblot_170816_1750_044.png	pdPR_noiseMask_170814_1952_058.png	0	1	0.015238	3818.302840
999	1	5	29	149	white_00939_960627_fa_edt.bmp	pd_sm_inkblot_170816_1750_031.png	pdPR_noiseMask_170814_1952_073.png	0	1	0.253452	3818.552753
999	1	5	30	150	black_00273_940422_fa_edt.bmp	pd_sm_inkblot_170816_1750_021.png	pdPR_noiseMask_170814_1952_098.png	1	1	0.226221	3819.035909
