SUBJECT ID	CONDITION	BLOCK	TRIAL NUM	CUMULATIVE TRIAL NUM	STIM	PARTNER RACE	RESPONSE	RT	START TIMEn999	1	1	01	01	white_sid1037_sk11110.png	0	6	0.552721	15062.187105
999	1	1	02	02	other_sid1130_sk00000.png	2	5	0.324221	15062.855618
999	1	1	03	03	white_sid1054_sk00000.png	0	9	0.353155	15063.290720
999	1	1	04	04	black_sid1103_sk11100.png	1	8	0.141462	15063.758623
999	1	1	05	05	other_sid1104_sk00000.png	2	7	0.170071	15064.009631
999	1	1	06	06	other_sid1024_sk11000.png	2	3	0.301873	15064.293551
999	1	1	07	07	black_sid1109_sk00000.png	1	2	0.285431	15064.710687
999	1	1	08	08	black_sid1049_sk11100.png	1	1	0.091807	15065.111868
999	1	1	09	09	white_sid1020_sk11100.png	0	6	0.218653	15065.313340
999	1	1	10	10	black_sid1073_sk11000.png	1	5	0.277231	15065.646623
999	1	2	01	11	black_sid1071_sk10000.png	1	3	0.573129	15072.079193
999	1	2	02	12	black_sid1101_sk11000.png	1	4	0.364638	15072.766936
999	1	2	03	13	white_sid1016_sk11000.png	0	6	0.121222	15073.250859
999	1	2	04	14	white_sid1051_sk10000.png	0	9	0.438841	15073.485455
999	1	2	05	15	black_sid1201_sk11110.png	1	8	0.263623	15074.036101
999	1	2	06	16	white_sid1189_sk11100.png	0	4	0.303257	15074.420755
999	1	2	07	17	black_sid1050_sk00000.png	1	2	0.149464	15074.838603
999	1	2	08	18	black_sid1137_sk00000.png	1	5	0.146034	15075.105612
999	1	2	09	19	other_sid1167_sk11100.png	2	1	0.318943	15075.373330
999	1	2	10	20	black_sid1035_sk11100.png	1	8	0.443788	15075.807985
