SUBJECT ID	CONDITION	BLOCK	TRIAL NUM	CUMULATIVE TRIAL NUM	STIM	INK	MASK	STIM RACE	RESPONSE	RT	START TIME
xxx	1	80	01	01	black_mb030.bmp	pd_sm_inkblot_170816_1750_054.png	pdPR_noiseMask_170814_1952_049.png	1	1	1.802051	883.052829
xxx	1	80	02	02	white_00939_960627_fa_edt.bmp	pd_sm_inkblot_170816_1750_078.png	pdPR_noiseMask_170814_1952_075.png	0	0	1.927956	885.118781
xxx	1	80	03	03	other_00582_940928_fb_edt.bmp	pd_sm_inkblot_170816_1750_040.png	pdPR_noiseMask_170814_1952_029.png	2	0	0.800821	887.318057
xxx	1	1	01	01	black_00183_940128_fb_edt.bmp	pd_sm_inkblot_170816_1750_045.png	pdPR_noiseMask_170814_1952_011.png	1	1	0.760100	893.382674
xxx	1	1	02	02	white_00120_931230_fa_edt.bmp	pd_sm_inkblot_170816_1750_010.png	pdPR_noiseMask_170814_1952_067.png	0	0	0.496939	894.365711
xxx	1	1	03	03	other_00122_931230_fa_edt.bmp	pd_sm_inkblot_170816_1750_069.png	pdPR_noiseMask_170814_1952_057.png	2	1	0.443960	895.098755
xxx	1	1	04	04	black_mb021.bmp	pd_sm_inkblot_170816_1750_006.png	pdPR_noiseMask_170814_1952_073.png	1	0	1.233536	895.765179
xxx	1	1	05	05	black_00273_940422_fa_edt.bmp	pd_sm_inkblot_170816_1750_065.png	pdPR_noiseMask_170814_1952_008.png	1	0	0.431215	897.231424
xxx	1	1	06	06	white_00757_941201_fa_edt.bmp	pd_sm_inkblot_170816_1750_022.png	pdPR_noiseMask_170814_1952_073.png	0	1	0.844963	897.897794
xxx	1	1	07	07	black_00358_940422_fb_edt.bmp	pd_sm_inkblot_170816_1750_064.png	pdPR_noiseMask_170814_1952_084.png	1	0	0.577912	898.980764
xxx	1	1	08	08	other_00114_931230_fa_edt.bmp	pd_sm_inkblot_170816_1750_053.png	pdPR_noiseMask_170814_1952_026.png	2	0	0.602208	899.780479
xxx	1	1	09	09	black_mb026.bmp	pd_sm_inkblot_170816_1750_088.png	pdPR_noiseMask_170814_1952_057.png	1	0	0.761206	900.613533
xxx	1	1	10	10	other_00234_940128_fb_edt.bmp	pd_sm_inkblot_170816_1750_086.png	pdPR_noiseMask_170814_1952_050.png	2	0	1.770067	901.596530
xxx	1	1	11	11	black_00677_941121_fa_edt.bmp	pd_sm_inkblot_170816_1750_094.png	pdPR_noiseMask_170814_1952_040.png	1	0	0.610803	903.595869
xxx	1	1	12	12	other_00512_940519_fa_edt.bmp	pd_sm_inkblot_170816_1750_024.png	pdPR_noiseMask_170814_1952_065.png	2	1	1.297693	904.428918
xxx	1	1	13	13	white_00764_941201_fa_edt.bmp	pd_sm_inkblot_170816_1750_064.png	pdPR_noiseMask_170814_1952_085.png	0	0	0.509075	905.961721
xxx	1	1	14	14	white_00591_940928_fa_edt.bmp	pd_sm_inkblot_170816_1750_066.png	pdPR_noiseMask_170814_1952_002.png	0	0	0.479770	906.694804
xxx	1	1	15	15	white_mw002.bmp	pd_sm_inkblot_170816_1750_019.png	pdPR_noiseMask_170814_1952_036.png	0	1	0.355386	907.411248
xxx	1	1	16	16	black_00746_941201_fb_edt.bmp	pd_sm_inkblot_170816_1750_039.png	pdPR_noiseMask_170814_1952_027.png	1	1	0.540221	907.994379
xxx	1	1	17	17	white_mw003.bmp	pd_sm_inkblot_170816_1750_008.png	pdPR_noiseMask_170814_1952_048.png	0	0	0.445824	908.760771
xxx	1	1	18	18	other_00193_940128_fa_edt.bmp	pd_sm_inkblot_170816_1750_022.png	pdPR_noiseMask_170814_1952_083.png	2	0	0.435368	909.427238
xxx	1	1	19	19	white_00299_940422_fa_edt.bmp	pd_sm_inkblot_170816_1750_059.png	pdPR_noiseMask_170814_1952_093.png	0	0	6.072834	910.093671
xxx	1	1	20	20	white_00253_940128_fa_edt.bmp	pd_sm_inkblot_170816_1750_039.png	pdPR_noiseMask_170814_1952_078.png	0	1	1.319162	916.391545
xxx	1	1	21	21	black_00257_940128_fa_edt.bmp	pd_sm_inkblot_170816_1750_086.png	pdPR_noiseMask_170814_1952_026.png	1	1	0.601360	917.941016
xxx	1	1	22	22	other_00614_940928_fa_edt.bmp	pd_sm_inkblot_170816_1750_033.png	pdPR_noiseMask_170814_1952_084.png	2	1	0.496396	918.774065
xxx	1	1	23	23	other_00097_931230_fa_edt.bmp	pd_sm_inkblot_170816_1750_046.png	pdPR_noiseMask_170814_1952_067.png	2	0	0.739202	919.507250
xxx	1	1	24	24	other_00046_931230_fa_edt.bmp	pd_sm_inkblot_170816_1750_032.png	pdPR_noiseMask_170814_1952_041.png	2	1	0.500995	920.473479
xxx	1	1	25	25	other_00058_931230_fa_edt.bmp	pd_sm_inkblot_170816_1750_047.png	pdPR_noiseMask_170814_1952_040.png	2	1	0.495821	921.206564
xxx	1	1	26	26	white_mw010.bmp	pd_sm_inkblot_170816_1750_012.png	pdPR_noiseMask_170814_1952_087.png	0	0	0.619459	921.923002
xxx	1	1	27	27	white_00109_931230_fa_edt.bmp	pd_sm_inkblot_170816_1750_076.png	pdPR_noiseMask_170814_1952_016.png	0	1	0.449756	922.772714
xxx	1	1	28	28	other_00596_940928_fa_edt.bmp	pd_sm_inkblot_170816_1750_019.png	pdPR_noiseMask_170814_1952_000.png	2	0	0.430641	923.455845
xxx	1	1	29	29	black_mb027.bmp	pd_sm_inkblot_170816_1750_012.png	pdPR_noiseMask_170814_1952_021.png	1	1	0.300368	924.122257
xxx	1	1	30	30	black_mb031.bmp	pd_sm_inkblot_170816_1750_032.png	pdPR_noiseMask_170814_1952_048.png	1	1	0.279069	924.655411
xxx	1	2	01	31	other_00261_940128_fb_edt.bmp	pd_sm_inkblot_170816_1750_082.png	pdPR_noiseMask_170814_1952_048.png	2	0	1.043185	931.203196
xxx	1	2	02	32	black_00801_941205_fa_edt.bmp	pd_sm_inkblot_170816_1750_092.png	pdPR_noiseMask_170814_1952_017.png	1	0	0.432849	932.469541
xxx	1	2	03	33	black_mb008.bmp	pd_sm_inkblot_170816_1750_066.png	pdPR_noiseMask_170814_1952_097.png	1	0	4.214431	933.135876
xxx	1	2	04	34	other_00318_940422_fb_edt.bmp	pd_sm_inkblot_170816_1750_038.png	pdPR_noiseMask_170814_1952_069.png	2	1	8.429822	937.584354
xxx	1	2	05	35	other_00588_940928_fa_edt.bmp	pd_sm_inkblot_170816_1750_076.png	pdPR_noiseMask_170814_1952_036.png	2	0	0.846085	946.248105
xxx	1	2	06	36	other_00139_931230_fb_edt.bmp	pd_sm_inkblot_170816_1750_008.png	pdPR_noiseMask_170814_1952_055.png	2	0	0.739112	947.331070
xxx	1	2	07	37	white_00199_940128_fa_edt.bmp	pd_sm_inkblot_170816_1750_026.png	pdPR_noiseMask_170814_1952_077.png	0	1	0.540743	948.297410
xxx	1	2	08	38	other_00616_940928_fa_edt_rot.bmp	pd_sm_inkblot_170816_1750_002.png	pdPR_noiseMask_170814_1952_099.png	2	1	0.526640	949.063802
xxx	1	2	09	39	white_00785_941205_fb_edt.bmp	pd_sm_inkblot_170816_1750_045.png	pdPR_noiseMask_170814_1952_008.png	0	0	0.632636	949.813564
xxx	1	2	10	40	other_00132_931230_fb_edt.bmp	pd_sm_inkblot_170816_1750_039.png	pdPR_noiseMask_170814_1952_051.png	2	1	0.486273	950.679924
xxx	1	2	11	41	white_00807_941205_fb_edt.bmp	pd_sm_inkblot_170816_1750_038.png	pdPR_noiseMask_170814_1952_025.png	0	1	1.745767	951.396419
xxx	1	2	12	42	white_00874_940307_fa_edt.bmp	pd_sm_inkblot_170816_1750_086.png	pdPR_noiseMask_170814_1952_042.png	0	0	0.835066	953.379010
xxx	1	2	13	43	white_00657_941121_fa_edt.bmp	pd_sm_inkblot_170816_1750_046.png	pdPR_noiseMask_170814_1952_017.png	0	0	0.488804	954.445349
xxx	1	2	14	44	black_00332_940422_fa_edt_contrast.bmp	pd_sm_inkblot_170816_1750_071.png	pdPR_noiseMask_170814_1952_052.png	1	1	0.468447	955.161755
xxx	1	2	15	45	white_00659_941121_fa_edt.bmp	pd_sm_inkblot_170816_1750_061.png	pdPR_noiseMask_170814_1952_092.png	0	1	0.400637	955.861518
xxx	1	2	16	46	other_00584_940928_fa_edt.bmp	pd_sm_inkblot_170816_1750_045.png	pdPR_noiseMask_170814_1952_039.png	2	1	0.439506	956.494637
xxx	1	2	17	47	white_mw013.bmp	pd_sm_inkblot_170816_1750_002.png	pdPR_noiseMask_170814_1952_097.png	0	0	0.445088	957.161066
xxx	1	2	18	48	black_mb035.bmp	pd_sm_inkblot_170816_1750_074.png	pdPR_noiseMask_170814_1952_039.png	1	1	0.474606	957.827521
xxx	1	2	19	49	other_00461_940422_fb_edt.bmp	pd_sm_inkblot_170816_1750_059.png	pdPR_noiseMask_170814_1952_001.png	2	1	0.486842	958.527269
xxx	1	2	20	50	black_00929_960627_fa_edt.bmp	pd_sm_inkblot_170816_1750_011.png	pdPR_noiseMask_170814_1952_085.png	1	0	0.458383	959.243709
xxx	1	2	21	51	black_mb023.bmp	pd_sm_inkblot_170816_1750_056.png	pdPR_noiseMask_170814_1952_094.png	1	0	0.615444	959.926810
xxx	1	2	22	52	black_00558_940519_fa_edt.bmp	pd_sm_inkblot_170816_1750_002.png	pdPR_noiseMask_170814_1952_050.png	1	1	0.605565	960.776529
xxx	1	2	23	53	black_38M_NE_C.bmp	pd_sm_inkblot_170816_1750_046.png	pdPR_noiseMask_170814_1952_002.png	1	0	0.828425	961.609574
xxx	1	2	24	54	white_00283_940422_fa_edt.bmp	pd_sm_inkblot_170816_1750_093.png	pdPR_noiseMask_170814_1952_052.png	0	1	0.544748	962.661244
xxx	1	2	25	55	other_00110_931230_fb_edt.bmp	pd_sm_inkblot_170816_1750_088.png	pdPR_noiseMask_170814_1952_078.png	2	1	0.555706	963.442371
xxx	1	2	26	56	white_00597_940928_fb_edt.bmp	pd_sm_inkblot_170816_1750_032.png	pdPR_noiseMask_170814_1952_000.png	0	1	0.540686	964.225358
xxx	1	2	27	57	black_mb001.bmp	pd_sm_inkblot_170816_1750_047.png	pdPR_noiseMask_170814_1952_077.png	1	0	0.478300	964.991761
xxx	1	2	28	58	black_mb016.bmp	pd_sm_inkblot_170816_1750_072.png	pdPR_noiseMask_170814_1952_043.png	1	0	0.402487	965.691512
xxx	1	2	29	59	other_00205_940128_fa_edt.bmp	pd_sm_inkblot_170816_1750_064.png	pdPR_noiseMask_170814_1952_012.png	2	0	0.313399	966.324632
xxx	1	2	30	60	white_00223_940128_fb_edt.bmp	pd_sm_inkblot_170816_1750_090.png	pdPR_noiseMask_170814_1952_027.png	0	1	0.235498	966.874458
xxx	1	3	01	61	white_00340_940422_fa_edt.bmp	pd_sm_inkblot_170816_1750_071.png	pdPR_noiseMask_170814_1952_031.png	0	1	3.025699	973.372260
xxx	1	3	02	62	white_00897_960530_fb_edt.bmp	pd_sm_inkblot_170816_1750_083.png	pdPR_noiseMask_170814_1952_099.png	0	0	0.800797	976.621147
xxx	1	3	03	63	other_00516_940519_fb_edt.bmp	pd_sm_inkblot_170816_1750_020.png	pdPR_noiseMask_170814_1952_043.png	2	1	0.703758	977.654130
xxx	1	3	04	64	white_00519_940519_fb_edt.bmp	pd_sm_inkblot_170816_1750_052.png	pdPR_noiseMask_170814_1952_082.png	0	1	0.538751	978.587152
xxx	1	3	05	65	white_00816_941205_fa_edt.bmp	pd_sm_inkblot_170816_1750_018.png	pdPR_noiseMask_170814_1952_011.png	0	1	0.532264	979.353570
xxx	1	3	06	66	black_00586_940928_fa_edt.bmp	pd_sm_inkblot_170816_1750_018.png	pdPR_noiseMask_170814_1952_042.png	1	1	0.437899	980.119982
xxx	1	3	07	67	other_00604_940928_fb_edt.bmp	pd_sm_inkblot_170816_1750_049.png	pdPR_noiseMask_170814_1952_082.png	2	0	0.483493	980.786404
xxx	1	3	08	68	other_00415_940422_fb_edt_rot.bmp	pd_sm_inkblot_170816_1750_043.png	pdPR_noiseMask_170814_1952_053.png	2	1	0.367183	981.502874
xxx	1	3	09	69	other_00578_940928_fa_edt.bmp	pd_sm_inkblot_170816_1750_070.png	pdPR_noiseMask_170814_1952_094.png	2	0	1.879259	982.102640
xxx	1	3	10	70	white_mw022.bmp	pd_sm_inkblot_170816_1750_072.png	pdPR_noiseMask_170814_1952_094.png	0	1	0.339298	984.218607
xxx	1	3	11	71	other_00575_940928_fb_edt.bmp	pd_sm_inkblot_170816_1750_011.png	pdPR_noiseMask_170814_1952_052.png	2	1	0.428953	984.785069
xxx	1	3	12	72	black_00857_940307_fa_edt.bmp	pd_sm_inkblot_170816_1750_014.png	pdPR_noiseMask_170814_1952_000.png	1	1	0.411017	985.434845
xxx	1	3	13	73	other_00029_940128_fa_edt.bmp	pd_sm_inkblot_170816_1750_014.png	pdPR_noiseMask_170814_1952_016.png	2	0	0.113223	986.084613
xxx	1	3	14	74	black_mb013.bmp	pd_sm_inkblot_170816_1750_043.png	pdPR_noiseMask_170814_1952_036.png	1	0	0.171382	986.434493
xxx	1	3	15	75	black_mb003.bmp	pd_sm_inkblot_170816_1750_083.png	pdPR_noiseMask_170814_1952_092.png	1	0	0.147422	986.834374
xxx	1	3	16	76	black_mb033.bmp	pd_sm_inkblot_170816_1750_060.png	pdPR_noiseMask_170814_1952_065.png	1	0	0.156803	987.217566
xxx	1	3	17	77	white_00766_941201_fb_edt.bmp	pd_sm_inkblot_170816_1750_014.png	pdPR_noiseMask_170814_1952_039.png	0	1	1.204966	987.600779
xxx	1	3	18	78	other_00096_940128_fb_edt.bmp	pd_sm_inkblot_170816_1750_095.png	pdPR_noiseMask_170814_1952_002.png	2	1	0.148215	989.033616
xxx	1	3	19	79	other_00610_940928_fa_edt.bmp	pd_sm_inkblot_170816_1750_027.png	pdPR_noiseMask_170814_1952_032.png	2	1	0.164982	989.416848
xxx	1	3	20	80	black_mb018.bmp	pd_sm_inkblot_170816_1750_069.png	pdPR_noiseMask_170814_1952_087.png	1	1	0.173113	989.816684
xxx	1	3	21	81	white_00960_960627_fb_edt.bmp	pd_sm_inkblot_170816_1750_043.png	pdPR_noiseMask_170814_1952_084.png	0	1	0.709365	990.216563
xxx	1	3	22	82	other_00247_941121_fb_edt.bmp	pd_sm_inkblot_170816_1750_092.png	pdPR_noiseMask_170814_1952_031.png	2	1	0.976242	991.149580
xxx	1	3	23	83	black_00964_960627_fb_edt.bmp	pd_sm_inkblot_170816_1750_093.png	pdPR_noiseMask_170814_1952_069.png	1	1	0.600503	992.349175
xxx	1	3	24	84	white_mw024.bmp	pd_sm_inkblot_170816_1750_024.png	pdPR_noiseMask_170814_1952_051.png	0	1	0.511582	993.182225
xxx	1	3	25	85	other_00617_940928_fb_edt.bmp	pd_sm_inkblot_170816_1750_093.png	pdPR_noiseMask_170814_1952_017.png	2	1	0.561837	993.931956
xxx	1	3	26	86	black_mb010.bmp	pd_sm_inkblot_170816_1750_008.png	pdPR_noiseMask_170814_1952_001.png	1	1	0.474663	994.715025
xxx	1	3	27	87	black_00453_940422_fb_edt.bmp	pd_sm_inkblot_170816_1750_061.png	pdPR_noiseMask_170814_1952_082.png	1	1	0.302995	995.414803
xxx	1	3	28	88	white_00129_931230_fb_edt.bmp	pd_sm_inkblot_170816_1750_062.png	pdPR_noiseMask_170814_1952_088.png	0	0	0.234065	995.947943
xxx	1	3	29	89	black_mb005.bmp	pd_sm_inkblot_170816_1750_024.png	pdPR_noiseMask_170814_1952_051.png	1	0	0.159178	996.414531
xxx	1	3	30	90	white_00050_931230_fa_edt.bmp	pd_sm_inkblot_170816_1750_053.png	pdPR_noiseMask_170814_1952_083.png	0	0	0.176102	996.797668
xxx	1	4	01	91	white_mw015.bmp	pd_sm_inkblot_170816_1750_088.png	pdPR_noiseMask_170814_1952_041.png	0	0	2.640215	1003.245495
xxx	1	4	02	92	black_mb014.bmp	pd_sm_inkblot_170816_1750_007.png	pdPR_noiseMask_170814_1952_083.png	1	0	0.494378	1006.111183
xxx	1	4	03	93	other_00216_940128_fa_edt.bmp	pd_sm_inkblot_170816_1750_012.png	pdPR_noiseMask_170814_1952_073.png	2	1	8.690002	1006.827593
xxx	1	4	04	94	other_00237_940128_fb_edt.bmp	pd_sm_inkblot_170816_1750_018.png	pdPR_noiseMask_170814_1952_058.png	2	1	0.424326	1015.741262
xxx	1	4	05	95	other_00119_931230_fb_edt.bmp	pd_sm_inkblot_170816_1750_066.png	pdPR_noiseMask_170814_1952_011.png	2	1	0.222526	1016.391025
xxx	1	4	06	96	white_mw006.bmp	pd_sm_inkblot_170816_1750_041.png	pdPR_noiseMask_170814_1952_040.png	0	1	0.084613	1016.840873
xxx	1	4	07	97	white_00248_940128_fa_edt.bmp	pd_sm_inkblot_170816_1750_092.png	pdPR_noiseMask_170814_1952_012.png	0	1	0.008135	1017.157451
xxx	1	4	08	98	other_00587_940928_fa_edt.bmp	pd_sm_inkblot_170816_1750_041.png	pdPR_noiseMask_170814_1952_027.png	2	1	0.015045	1017.390743
xxx	1	4	09	99	white_mw009.bmp	pd_sm_inkblot_170816_1750_033.png	pdPR_noiseMask_170814_1952_033.png	0	0	0.156946	1017.640617
xxx	1	4	10	100	other_00566_940928_fb_edt.bmp	pd_sm_inkblot_170816_1750_007.png	pdPR_noiseMask_170814_1952_087.png	2	1	0.141738	1018.023820
xxx	1	4	11	101	black_mb025.bmp	pd_sm_inkblot_170816_1750_062.png	pdPR_noiseMask_170814_1952_016.png	1	0	0.143224	1018.390364
xxx	1	4	12	102	black_mb029.bmp	pd_sm_inkblot_170816_1750_019.png	pdPR_noiseMask_170814_1952_099.png	1	1	0.144695	1018.756907
xxx	1	4	13	103	white_mw025.bmp	pd_sm_inkblot_170816_1750_049.png	pdPR_noiseMask_170814_1952_055.png	0	1	0.037404	1019.240064
xxx	1	4	14	104	other_00070_941121_fb_edt.bmp	pd_sm_inkblot_170816_1750_052.png	pdPR_noiseMask_170814_1952_042.png	2	1	0.138889	1019.506652
xxx	1	4	15	105	white_mw012.bmp	pd_sm_inkblot_170816_1750_069.png	pdPR_noiseMask_170814_1952_043.png	0	1	0.124351	1019.873181
xxx	1	4	16	106	black_mb019.bmp	pd_sm_inkblot_170816_1750_022.png	pdPR_noiseMask_170814_1952_078.png	1	1	0.142579	1020.223062
xxx	1	4	17	107	black_mb006.bmp	pd_sm_inkblot_170816_1750_038.png	pdPR_noiseMask_170814_1952_041.png	1	1	0.127929	1020.589624
xxx	1	4	18	108	other_00619_940928_fa_edt.bmp	pd_sm_inkblot_170816_1750_072.png	pdPR_noiseMask_170814_1952_079.png	2	1	0.121304	1020.956148
xxx	1	4	19	109	white_mw019.bmp	pd_sm_inkblot_170816_1750_011.png	pdPR_noiseMask_170814_1952_001.png	0	0	0.147485	1021.306049
xxx	1	4	20	110	other_00246_940128_fa_edt.bmp	pd_sm_inkblot_170816_1750_026.png	pdPR_noiseMask_170814_1952_085.png	2	0	0.100283	1021.689232
xxx	1	4	21	111	black_mb004.bmp	pd_sm_inkblot_170816_1750_076.png	pdPR_noiseMask_170814_1952_067.png	1	0	0.127044	1022.022471
xxx	1	4	22	112	other_00580_940928_fa_edt.bmp	pd_sm_inkblot_170816_1750_065.png	pdPR_noiseMask_170814_1952_025.png	2	1	0.145201	1022.372335
xxx	1	4	23	113	black_mb032.bmp	pd_sm_inkblot_170816_1750_090.png	pdPR_noiseMask_170814_1952_089.png	1	1	0.130546	1022.738893
xxx	1	4	24	114	white_00898_960530_fa_edt.bmp	pd_sm_inkblot_170816_1750_056.png	pdPR_noiseMask_170814_1952_053.png	0	1	0.115992	1023.105435
xxx	1	4	25	115	black_00108_940128_fb_edt.bmp	pd_sm_inkblot_170816_1750_027.png	pdPR_noiseMask_170814_1952_031.png	1	1	0.102162	1023.455322
xxx	1	4	26	116	other_00570_940928_fa_edt.bmp	pd_sm_inkblot_170816_1750_090.png	pdPR_noiseMask_170814_1952_008.png	2	1	0.128855	1023.788538
xxx	1	4	27	117	black_mb011.bmp	pd_sm_inkblot_170816_1750_026.png	pdPR_noiseMask_170814_1952_053.png	1	1	0.139121	1024.138404
xxx	1	4	28	118	black_mb009.bmp	pd_sm_inkblot_170816_1750_095.png	pdPR_noiseMask_170814_1952_006.png	1	1	0.108453	1024.504962
xxx	1	4	29	119	white_mw001.bmp	pd_sm_inkblot_170816_1750_065.png	pdPR_noiseMask_170814_1952_065.png	0	1	0.143305	1024.838181
xxx	1	4	30	120	white_mw016.bmp	pd_sm_inkblot_170816_1750_070.png	pdPR_noiseMask_170814_1952_021.png	0	1	0.112784	1025.204726
xxx	1	5	01	121	other_00116_931230_fa_edt.bmp	pd_sm_inkblot_170816_1750_061.png	pdPR_noiseMask_170814_1952_006.png	2	0	0.603542	1031.585897
xxx	1	5	02	122	white_00577_940928_fa_edt.bmp	pd_sm_inkblot_170816_1750_006.png	pdPR_noiseMask_170814_1952_089.png	0	1	0.058519	1032.419011
xxx	1	5	03	123	other_00383_941031_fa_edt_rot.bmp	pd_sm_inkblot_170816_1750_056.png	pdPR_noiseMask_170814_1952_088.png	2	0	0.071310	1032.702191
xxx	1	5	04	124	white_mw004.bmp	pd_sm_inkblot_170816_1750_082.png	pdPR_noiseMask_170814_1952_079.png	0	1	0.075343	1033.002087
xxx	1	5	05	125	white_00658_941121_fb_edt.bmp	pd_sm_inkblot_170816_1750_095.png	pdPR_noiseMask_170814_1952_003.png	0	0	0.055442	1033.301985
xxx	1	5	06	126	other_00611_940928_fa_edt_rot.bmp	pd_sm_inkblot_170816_1750_083.png	pdPR_noiseMask_170814_1952_097.png	2	1	0.052144	1033.585225
xxx	1	5	07	127	other_00282_940422_fb_edt.bmp	pd_sm_inkblot_170816_1750_060.png	pdPR_noiseMask_170814_1952_092.png	2	0	0.048987	1033.868461
xxx	1	5	08	128	other_00601_940928_fb_edt.bmp	pd_sm_inkblot_170816_1750_074.png	pdPR_noiseMask_170814_1952_093.png	2	1	0.053778	1034.151683
xxx	1	5	09	129	black_mb015.bmp	pd_sm_inkblot_170816_1750_082.png	pdPR_noiseMask_170814_1952_025.png	1	0	0.178500	1034.434921
xxx	1	5	10	130	white_mw018.bmp	pd_sm_inkblot_170816_1750_020.png	pdPR_noiseMask_170814_1952_006.png	0	0	0.210645	1034.834787
xxx	1	5	11	131	other_00178_931230_fa_edt.bmp	pd_sm_inkblot_170816_1750_071.png	pdPR_noiseMask_170814_1952_089.png	2	0	0.201278	1035.268002
xxx	1	5	12	132	white_00602_940928_fb_edt.bmp	pd_sm_inkblot_170816_1750_074.png	pdPR_noiseMask_170814_1952_069.png	0	1	0.544213	1035.701171
xxx	1	5	13	133	white_00972_960627_fa_edt.bmp	pd_sm_inkblot_170816_1750_007.png	pdPR_noiseMask_170814_1952_057.png	0	0	0.273846	1036.467580
xxx	1	5	14	134	black_mb017.bmp	pd_sm_inkblot_170816_1750_010.png	pdPR_noiseMask_170814_1952_033.png	1	1	0.069919	1036.967412
xxx	1	5	15	135	black_00716_941201_fa_edt_rot.bmp	pd_sm_inkblot_170816_1750_041.png	pdPR_noiseMask_170814_1952_058.png	1	1	0.002178	1037.267310
xxx	1	5	16	136	other_00490_940519_fb_edt.bmp	pd_sm_inkblot_170816_1750_062.png	pdPR_noiseMask_170814_1952_033.png	2	0	0.184771	1037.500571
xxx	1	5	17	137	black_mb002.bmp	pd_sm_inkblot_170816_1750_033.png	pdPR_noiseMask_170814_1952_055.png	1	0	0.224266	1037.917067
xxx	1	5	18	138	other_00618_940928_fb_edt.bmp	pd_sm_inkblot_170816_1750_094.png	pdPR_noiseMask_170814_1952_021.png	2	0	0.006277	1038.366982
xxx	1	5	19	139	other_00545_940519_fa_edt.bmp	pd_sm_inkblot_170816_1750_006.png	pdPR_noiseMask_170814_1952_003.png	2	1	0.221166	1038.600221
xxx	1	5	20	140	white_mw008.bmp	pd_sm_inkblot_170816_1750_027.png	pdPR_noiseMask_170814_1952_026.png	0	1	0.195360	1039.050029
xxx	1	5	21	141	white_00761_941201_fb_edt.bmp	pd_sm_inkblot_170816_1750_060.png	pdPR_noiseMask_170814_1952_058.png	0	1	0.170129	1039.483226
xxx	1	5	22	142	black_00531_940519_fa_edt.bmp	pd_sm_inkblot_170816_1750_052.png	pdPR_noiseMask_170814_1952_079.png	1	1	0.170343	1039.883184
xxx	1	5	23	143	black_00917_960620_fa_edt.bmp	pd_sm_inkblot_170816_1750_053.png	pdPR_noiseMask_170814_1952_003.png	1	1	0.194713	1040.282955
xxx	1	5	24	144	white_00341_940422_fa_edt.bmp	pd_sm_inkblot_170816_1750_047.png	pdPR_noiseMask_170814_1952_032.png	0	1	0.169923	1040.699495
xxx	1	5	25	145	other_00583_940928_fa_edt.bmp	pd_sm_inkblot_170816_1750_010.png	pdPR_noiseMask_170814_1952_077.png	2	1	0.185896	1041.099405
xxx	1	5	26	146	black_00488_940519_fb_edt.bmp	pd_sm_inkblot_170816_1750_049.png	pdPR_noiseMask_170814_1952_093.png	1	1	0.193501	1041.515882
xxx	1	5	27	147	black_00467_940519_fb_edt.bmp	pd_sm_inkblot_170816_1750_070.png	pdPR_noiseMask_170814_1952_088.png	1	1	0.224983	1041.932403
xxx	1	5	28	148	black_mb020.bmp	pd_sm_inkblot_170816_1750_059.png	pdPR_noiseMask_170814_1952_032.png	1	1	0.198964	1042.382234
xxx	1	5	29	149	black_39M_NE_C.bmp	pd_sm_inkblot_170816_1750_020.png	pdPR_noiseMask_170814_1952_012.png	1	1	0.213878	1042.815433
xxx	1	5	30	150	white_mw028.bmp	pd_sm_inkblot_170816_1750_094.png	pdPR_noiseMask_170814_1952_050.png	0	1	1.244415	1043.265267
