SUBJECT ID	CONDITION	BLOCK	TRIAL NUM	CUMULATIVE TRIAL NUM	STIM	PARTNER RACE	RESPONSE	RT	START TIMEn999	2	1	01	01	black_sid1015_sk11000.png	1	5	7.289907	21793.791570
999	2	1	02	02	black_sid1186_sk11111.png	1	6	3.558029	21801.190372
999	2	1	03	03	black_sid1126_sk11110.png	1	5	1.509429	21804.857379
999	2	1	04	04	black_sid1119_sk10000.png	1	6	1.904353	21806.491280
999	2	1	05	05	white_sid1030_sk11100.png	0	3	3.239435	21808.507315
999	2	1	06	06	white_sid1016_sk11000.png	0	2	1.874606	21811.873982
999	2	1	07	07	other_sid1022_sk11111.png	2	3	4.591807	21813.857885
999	2	1	08	08	white_sid1168_sk11111.png	0	2	5.467102	21818.557744
999	2	1	09	09	black_sid1200_sk10101.png	1	5	6.362661	21824.140513
999	2	1	10	10	other_sid1167_sk11100.png	2	5	2.414875	21830.623392
999	2	1	11	11	other_sid1166_sk01110.png	2	4	2.440930	21833.157140
999	2	1	12	12	white_sid1198_sk11110.png	0	2	3.701969	21835.707195
999	2	1	13	13	other_sid1145_sk11111.png	2	6	2.005703	21839.524017
999	2	1	14	14	other_sid1090_sk11010.png	2	3	6.439983	21841.640818
999	2	1	15	15	black_sid1009_sk11111.png	1	4	4.389005	21848.190516
999	2	1	16	16	black_sid1108_sk11100.png	1	5	2.686653	21852.690220
999	2	1	17	17	white_sid1039_sk11100.png	0	4	2.817844	21855.490405
999	2	1	18	18	black_sid1184_sk00000.png	1	4	2.641693	21858.423533
999	2	1	19	19	black_sid1088_sk11111.png	1	5	2.273861	21861.189614
999	2	1	20	20	other_sid1025_sk01100.png	2	5	6.608658	21863.573549
999	2	1	21	21	white_sid1176_sk11100.png	0	1	4.916280	21870.306730
999	2	1	22	22	white_sid1189_sk11100.png	0	2	2.756495	21875.340182
999	2	1	23	23	other_sid1034_sk11110.png	2	6	4.383386	21878.206711
999	2	1	24	24	white_sid1054_sk00000.png	0	1	11.322362	21882.706035
999	2	1	25	25	white_sid1118_sk11111.png	0	4	2.151257	21894.139913
999	2	1	26	26	other_sid1061_sk11000.png	2	4	4.980689	21896.405941
999	2	1	27	27	black_sid1071_sk10000.png	1	6	1.849461	21901.506455
999	2	1	28	28	black_sid1029_sk11000.png	1	4	2.119421	21903.472547
999	2	1	29	29	white_sid1175_sk11100.png	0	3	2.416825	21905.705572
999	2	1	30	30	black_sid1103_sk11100.png	1	4	2.208594	21908.239719
999	2	1	31	31	white_sid1185_sk00000.png	0	2	2.842063	21910.556170
999	2	1	32	32	white_sid1020_sk11100.png	0	4	12.867297	21913.506111
999	2	1	33	33	white_sid1171_sk11000.png	0	2	2.169842	21926.489202
999	2	1	34	34	black_sid1102_sk11100.png	1	7	7.216734	21928.771935
999	2	1	35	35	black_sid1035_sk11100.png	1	1	2.126291	21936.106312
999	2	1	36	36	other_sid1045_sk11000.png	2	5	7.221444	21938.356145
999	2	1	37	37	white_sid1120_sk00001.png	0	3	3.139515	21945.689189
999	2	1	38	38	white_sid1021_sk11111.png	0	1	4.435339	21948.938937
999	2	2	01	39	white_sid1042_sk01111.png	0	2	3.023670	21959.522760
999	2	2	02	40	other_sid1104_sk00000.png	2	5	8.397894	21962.655368
999	2	2	03	41	black_sid1107_sk11000.png	1	4	10.901387	21971.171896
999	2	2	04	42	black_sid1073_sk11000.png	1	4	1.804309	21982.189124
999	2	2	05	43	black_sid1101_sk11000.png	1	5	1.703827	21984.104958
999	2	2	06	44	white_sid1037_sk11110.png	0	4	3.617562	21985.921316
999	2	2	07	45	black_sid1049_sk11100.png	1	6	4.314576	21989.654521
999	2	2	08	46	other_sid1044_sk11110.png	2	4	1.788507	21994.088143
999	2	2	09	47	black_sid1109_sk00000.png	1	4	9.593562	21995.988059
999	2	2	10	48	white_sid1112_sk00000.png	0	5	5.304978	22005.704497
999	2	2	11	49	black_sid1026_sk11110.png	1	4	3.388392	22011.121121
999	2	2	12	50	white_sid1031_sk11110.png	0	2	2.743496	22014.620968
999	2	2	13	51	black_sid1137_sk00000.png	1	5	2.428012	22017.488570
999	2	2	14	52	black_sid1129_sk11100.png	1	4	2.017112	22020.038466
999	2	2	15	53	black_sid1179_sk11110.png	1	4	3.681983	22022.171639
999	2	2	16	54	white_sid1110_sk11100.png	0	2	2.086498	22025.971272
999	2	2	17	55	other_sid1094_sk00000.png	2	4	3.300998	22028.171453
999	2	2	18	56	white_sid1097_sk11100.png	0	1	1.840607	22031.588106
999	2	2	19	57	black_sid1050_sk00000.png	1	3	4.943172	22033.537770
999	2	2	20	58	white_sid1180_sk11110.png	0	2	3.232818	22038.604197
999	2	2	21	59	white_sid1190_sk11000.png	0	1	1.611812	22041.954667
999	2	2	22	60	black_sid1122_sk11110.png	1	5	2.432702	22043.687357
999	2	2	23	61	other_sid1116_sk11110.png	2	4	6.740222	22046.237747
999	2	2	24	62	white_sid1006_sk00000.png	0	2	2.854505	22053.087348
999	2	2	25	63	black_sid1172_sk11111.png	1	5	3.306339	22056.054288
999	2	2	26	64	other_sid1074_sk11110.png	2	4	1.867809	22059.470995
999	2	2	27	65	other_sid1057_sk10000.png	2	4	3.331097	22061.453854
999	2	2	28	66	other_sid1047_sk01101.png	2	3	2.319992	22064.903623
999	2	2	29	67	white_sid1051_sk10000.png	0	4	2.776545	22067.337570
999	2	2	30	68	white_sid1065_sk00000.png	0	1	5.918360	22070.237586
999	2	2	31	69	other_sid1130_sk00000.png	2	4	2.138838	22076.270865
999	2	2	32	70	white_sid1003_sk11110.png	0	2	1.939399	22078.519876
999	2	2	33	71	white_sid1075_sk00000.png	0	3	2.634649	22080.570568
999	2	2	34	72	other_sid1150_sk11100.png	2	4	2.478952	22083.320019
999	2	2	35	73	black_sid1173_sk11110.png	1	5	1.455625	22085.920663
999	2	2	36	74	other_sid1134_sk00000.png	2	3	3.087380	22087.487694
999	2	2	37	75	black_sid1201_sk11110.png	1	4	2.742493	22090.687669
999	2	2	38	76	other_sid1024_sk11000.png	2	4	2.328539	22093.553181
