SUBJECT ID	CONDITION	BLOCK	TRIAL NUM	CUMULATIVE TRIAL NUM	STIM	PARTNER RACE	RESPONSE	RT	START TIMEn999	1	1	01	01	black_sid1107_sk11000.png	1	1	4.176027	13729.851812
999	1	1	02	02	white_sid1175_sk11100.png	0	2	0.359470	13734.164362
999	1	1	03	03	other_sid1116_sk11110.png	2	3	0.379454	13734.648476
999	1	1	04	04	other_sid1034_sk11110.png	2	4	0.798238	13735.149768
999	1	1	05	05	other_sid1025_sk01100.png	2	5	0.511272	13736.069065
999	1	1	06	06	black_sid1050_sk00000.png	1	6	0.675321	13736.704832
999	1	1	07	07	black_sid1049_sk11100.png	1	7	0.689850	13737.489649
999	1	1	08	08	black_sid1172_sk11111.png	1	8	2.783244	13738.292457
999	1	1	09	09	black_sid1108_sk11100.png	1	9	1.476553	13741.199629
999	1	1	10	10	white_sid1185_sk00000.png	0	1	3.639517	13742.788185
999	1	2	01	11	black_sid1137_sk00000.png	1	4	4.830397	13752.580986
999	1	2	02	12	white_sid1039_sk11100.png	0	5	0.508141	13757.528007
999	1	2	03	13	black_sid1088_sk11111.png	1	6	0.560643	13758.147172
999	1	2	04	14	black_sid1184_sk00000.png	1	7	1.060547	13758.831518
999	1	2	05	15	black_sid1071_sk10000.png	1	8	0.225403	13760.002135
999	1	2	06	16	white_sid1168_sk11111.png	0	9	0.356454	13760.335718
999	1	2	07	17	other_sid1074_sk11110.png	2	1	0.672564	13760.803632
999	1	2	08	18	black_sid1015_sk11000.png	1	2	0.246413	13761.589880
999	1	2	09	19	black_sid1129_sk11100.png	1	3	0.189990	13761.957619
999	1	2	10	20	white_sid1021_sk11111.png	0	6	0.786453	13762.257591
