SUBJECT ID	CONDITION	BLOCK	TRIAL NUM	CUMULATIVE TRIAL NUM	STIM	PARTNER RACE	RESPONSE	RT	START TIMEn999	2	1	01	01	other_sid1094_sk00000.png	2	1	0.718076	8753.466162
999	2	1	02	02	white_sid1039_sk11100.png	0	2	0.329698	8754.302774
999	2	1	03	03	black_sid1049_sk11100.png	1	3	0.607245	8754.753170
999	2	1	04	04	white_sid1171_sk11000.png	0	4	0.488064	8755.472416
999	2	1	05	05	other_sid1034_sk11110.png	2	5	0.150195	8756.073801
999	2	1	06	06	white_sid1120_sk00001.png	0	6	0.203244	8756.341128
999	2	1	07	07	white_sid1112_sk00000.png	0	7	0.276985	8756.659116
999	2	1	08	08	white_sid1198_sk11110.png	0	8	0.124291	8757.059955
999	2	1	09	09	white_sid1051_sk10000.png	0	9	0.242172	8757.293876
999	2	1	10	10	other_sid1022_sk11111.png	2	1	5.403694	8757.660999
999	2	2	01	11	black_sid1050_sk00000.png	1	9	0.382684	8769.209531
999	2	2	02	12	white_sid1003_sk11110.png	0	8	0.241085	8769.710995
999	2	2	03	13	black_sid1029_sk11000.png	1	7	0.225863	8770.062508
999	2	2	04	14	black_sid1172_sk11111.png	1	6	0.355461	8770.413067
999	2	2	05	15	white_sid1006_sk00000.png	0	5	0.287199	8770.880853
999	2	2	06	16	black_sid1103_sk11100.png	1	4	0.278196	8771.281888
999	2	2	07	17	white_sid1042_sk01111.png	0	3	0.556372	8771.683531
999	2	2	08	18	black_sid1129_sk11100.png	1	2	0.537112	8772.351585
999	2	2	09	19	other_sid1090_sk11010.png	2	1	0.300478	8773.003905
999	2	2	10	20	black_sid1071_sk10000.png	1	1	0.611076	8773.421144
