SUBJECT ID	CONDITION	BLOCK	TRIAL NUM	CUMULATIVE TRIAL NUM	STIM	PARTNER RACE	RESPONSE	RT	START TIME
036	2	1	01	01	white_mw033.bmp	0	7	2.667870	5511.934361
036	2	1	02	02	other_00869_940307_fa_edt.bmp	2	9	3.957964	5514.716347
036	2	1	03	03	white_mw082.bmp	0	1	2.115940	5518.798306
036	2	1	04	04	white_mw063.bmp	0	3	3.211383	5521.030839
036	2	1	05	05	black_mb057.bmp	1	5	2.007167	5524.363123
036	2	1	06	06	white_mw099.bmp	0	4	1.170590	5526.495640
036	2	1	07	07	other_00724_941201_fa_edt.bmp	2	6	1.351555	5527.778534
036	2	1	08	08	white_mw058.bmp	0	8	0.829432	5529.244701
036	2	1	09	09	white_mw043.bmp	0	2	0.775794	5530.194385
036	2	1	10	10	other_00672_941121_fa_edt.bmp	2	5	1.564510	5531.077417
036	2	1	11	11	other_00621_941121_fa_edt.bmp	2	4	1.809780	5532.760173
036	2	1	12	12	white_mw066.bmp	0	6	1.061161	5534.692838
036	2	1	13	13	black_mb038.bmp	1	8	0.558284	5535.875776
036	2	1	14	14	white_mw071.bmp	0	2	0.555824	5536.542206
036	2	1	15	15	white_mw034.bmp	0	1	1.009376	5537.208633
036	2	1	16	16	black_mb092.bmp	1	9	0.645045	5538.324933
036	2	1	17	17	other_00712_941205_fa_edt.bmp	2	7	0.606525	5539.091338
036	2	1	18	18	other_00622_940928_fb_edt.bmp	2	3	0.554099	5539.807745
036	2	1	19	19	white_mw049.bmp	0	9	3.839539	5540.474427
036	2	1	20	20	other_00880_960530_fa_edt.bmp	2	1	0.923058	5544.422865
036	2	1	21	21	other_00795_941205_fb_edt.bmp	2	3	0.890091	5545.455854
036	2	1	22	22	other_00793_941205_fb_edt.bmp	2	7	1.034395	5546.455522
036	2	1	23	23	white_mw095.bmp	0	6	0.892767	5547.605104
036	2	1	24	24	white_mw073.bmp	0	4	0.789063	5548.604776
036	2	1	25	25	other_00763_941201_fb_edt.bmp	2	8	0.649349	5549.504470
036	2	1	26	26	black_mb049.bmp	1	2	1.050938	5550.270873
036	2	1	27	27	black_mb097.bmp	1	5	1.516595	5551.437125
036	2	1	28	28	black_mb093.bmp	1	6	2.779886	5553.069897
036	2	1	29	29	other_00710_960530_fa_edt.bmp	2	4	0.368834	5555.968909
036	2	1	30	30	white_mw072.bmp	0	9	0.797691	5556.452075
036	2	1	31	31	black_mb054.bmp	1	1	0.321309	5557.368413
036	2	1	32	32	white_mw078.bmp	0	3	0.744157	5557.801600
036	2	1	33	33	white_mw057.bmp	0	7	0.397731	5558.667989
036	2	1	34	34	black_mb098.bmp	1	5	0.793249	5559.184477
036	2	1	35	35	other_00921_960627_fb_edt.bmp	2	8	2.589572	5560.084148
036	2	1	36	36	black_mb046.bmp	1	2	0.474414	5562.783250
036	2	1	37	37	other_00656_941121_fb_edt.bmp	2	6	0.427318	5563.366380
036	2	1	38	38	black_mb066.bmp	1	4	0.117358	5563.916196
036	2	1	39	39	other_00797_941205_fb_edt.bmp	2	9	0.420235	5564.149445
036	2	1	40	40	black_mb044.bmp	1	1	0.270937	5564.682600
036	2	1	41	41	white_mw080.bmp	0	7	0.343893	5565.065785
036	2	1	42	42	other_00976_960627_fb_edt.bmp	2	3	0.565313	5565.532305
036	2	1	43	43	white_mw056.bmp	0	5	0.698223	5566.215407
036	2	1	44	44	white_mw041.bmp	0	5	2.921804	5567.031796
036	2	1	45	45	black_mb055.bmp	1	4	0.321510	5570.064078
036	2	1	46	46	white_mw074.bmp	0	9	1.352835	5570.497287
036	2	1	47	47	white_mw047.bmp	0	6	0.254120	5571.963444
036	2	1	48	48	black_mb079.bmp	1	2	1.287582	5572.329986
036	2	1	49	49	other_00828_940307_fa_edt.bmp	2	1	0.319981	5573.729507
036	2	1	50	50	white_mw096.bmp	0	3	1.294716	5574.162694
036	2	1	51	51	white_mw092.bmp	0	7	0.334531	5575.578876
036	2	1	52	52	white_mw089.bmp	0	1	1.012790	5576.028743
036	2	1	53	53	black_mb058.bmp	1	8	0.583728	5577.161669
036	2	1	54	54	black_mb047.bmp	1	5	2.180109	5577.861415
036	2	1	55	55	other_00629_940928_fa_edt.bmp	2	4	0.672837	5580.160634
036	2	1	56	56	white_mw040.bmp	0	9	1.153747	5580.943697
036	2	1	57	57	black_mb075.bmp	1	8	0.359469	5582.209945
036	2	1	58	58	black_mb051.bmp	1	3	1.308946	5582.676452
036	2	1	59	59	other_00809_941205_fa_edt.bmp	2	6	0.244787	5584.092629
036	2	1	60	60	black_mb056.bmp	1	7	1.638280	5584.459177
036	2	1	61	61	black_mb082.bmp	1	8	1.656792	5586.208578
036	2	1	62	62	other_00652_941031_fb_edt.bmp	2	5	1.554700	5587.974643
036	2	1	63	63	black_mb099.bmp	1	4	1.176585	5589.640740
036	2	1	64	64	white_mw076.bmp	0	9	1.413620	5590.923617
036	2	1	65	65	other_00866_940307_fa_edt.bmp	2	3	1.368865	5592.456447
036	2	1	66	66	white_mw039.bmp	0	4	1.526043	5593.939258
036	2	1	67	67	black_mb045.bmp	1	8	1.477174	5595.572052
036	2	1	68	68	white_mw084.bmp	0	1	1.221796	5597.171504
036	2	1	69	69	other_00740_941205_fa_edt.bmp	2	9	1.441033	5598.504384
036	2	2	01	70	black_mb050.bmp	1	4	1.099810	5606.085333
036	2	2	02	71	other_00859_940307_fa_edt.bmp	2	8	1.979732	5607.301396
036	2	2	03	72	other_00926_960627_fa_edt.bmp	2	6	1.512360	5609.400666
036	2	2	04	73	black_mb094.bmp	1	1	1.879514	5611.033435
036	2	2	05	74	other_00625_940928_fb_edt.bmp	2	2	1.824213	5613.032753
036	2	2	06	75	black_mb064.bmp	1	9	1.691604	5614.965411
036	2	2	07	76	other_00623_940928_fb_edt.bmp	2	8	1.756223	5616.764830
036	2	2	08	77	white_mw048.bmp	0	7	2.386118	5618.630845
036	2	2	09	78	black_mb088.bmp	1	1	1.942807	5621.130008
036	2	2	10	79	white_mw038.bmp	0	5	1.813556	5623.179307
036	2	2	11	80	black_mb083.bmp	1	3	1.792888	5625.111984
036	2	2	12	81	white_mw042.bmp	0	5	1.316748	5627.027995
036	2	2	13	82	black_mb073.bmp	1	8	1.003977	5628.460819
036	2	2	14	83	white_mw067.bmp	0	9	1.743668	5629.577121
036	2	2	15	84	white_mw097.bmp	0	6	1.013713	5631.443154
036	2	2	16	85	other_00911_960530_fa_edt.bmp	2	1	1.560725	5632.576076
036	2	2	17	86	white_mw053.bmp	0	4	1.413942	5634.258820
036	2	2	18	87	black_mb068.bmp	1	7	1.681059	5635.791648
036	2	2	19	88	other_00734_941201_fa_edt.bmp	2	2	1.689641	5637.591076
036	2	2	20	89	black_mb070.bmp	1	3	1.810251	5639.390427
036	2	2	21	90	other_00640_941031_fa_edt_rot.bmp	2	6	1.589594	5641.323092
036	2	2	22	91	other_00668_941121_fa_edt.bmp	2	5	1.794043	5643.022531
036	2	2	23	92	white_mw065.bmp	0	8	2.710031	5644.938620
036	2	2	24	93	white_mw085.bmp	0	4	1.221606	5647.770909
036	2	2	25	94	black_mb039.bmp	1	9	1.448712	5649.103785
036	2	2	26	95	white_mw052.bmp	0	2	1.178533	5650.669916
036	2	2	27	96	other_00810_941205_fb_edt_rot.bmp	2	4	0.991129	5651.969467
036	2	2	28	97	other_00912_960530_fa_edt.bmp	2	1	1.371439	5653.069078
036	2	2	29	98	white_mw075.bmp	0	9	1.168614	5654.551889
036	2	2	30	99	other_00841_940307_fb_edt.bmp	2	3	0.853710	5655.834785
036	2	2	31	100	black_mb062.bmp	1	2	1.999203	5656.801160
036	2	2	32	101	other_00733_941201_fa_edt.bmp	2	4	0.915379	5658.917093
036	2	2	33	102	black_mb067.bmp	1	8	0.978400	5659.950067
036	2	2	34	103	white_mw054.bmp	0	9	0.918721	5661.049707
036	2	2	35	104	other_00698_941121_fb_edt.bmp	2	1	0.933632	5662.082686
036	2	2	36	105	black_mb061.bmp	1	5	1.339987	5663.132313
036	2	2	37	106	black_mb077.bmp	1	3	0.778553	5664.581831
036	2	2	38	107	other_00673_941121_fa_edt_rot.bmp	2	4	1.038861	5665.481534
036	2	2	39	108	other_01207_940128_fb_edt.bmp	2	4	1.241184	5666.631130
036	2	2	40	109	other_00933_960627_fa_edt.bmp	2	9	0.947595	5667.980672
036	2	2	41	110	white_mw044.bmp	0	1	1.369450	5669.046952
036	2	2	42	111	white_mw077.bmp	0	5	0.686519	5670.529784
036	2	2	43	112	black_mb071.bmp	1	4	0.438878	5671.329492
036	2	2	44	113	black_mb060.bmp	1	6	0.304877	5671.879318
036	2	2	45	114	white_mw060.bmp	0	3	1.264486	5672.295842
036	2	2	46	115	black_mb096.bmp	1	2	0.737564	5673.678690
036	2	2	47	116	white_mw029.bmp	0	8	0.615830	5674.528423
036	2	2	48	117	black_mb072.bmp	1	7	2.202749	5675.261502
036	2	2	49	118	white_mw035.bmp	0	8	1.614874	5677.577374
036	2	2	50	119	white_mw070.bmp	0	8	1.090063	5679.310136
036	2	2	51	120	black_mb089.bmp	1	3	0.938475	5680.509729
036	2	2	52	121	black_mb081.bmp	1	6	0.672789	5681.559388
036	2	2	53	122	black_mb063.bmp	1	1	1.113624	5682.342436
036	2	2	54	123	other_00726_941201_fb_edt.bmp	2	4	0.888821	5683.575344
036	2	2	55	124	black_mb085.bmp	1	5	0.785128	5684.575008
036	2	2	56	125	black_mb100.bmp	1	5	3.917413	5685.474702
036	2	2	57	126	black_mb078.bmp	1	5	3.413429	5689.506633
036	2	2	58	127	white_mw068.bmp	0	3	3.153302	5693.038759
036	2	2	59	128	other_00666_941121_fa_edt_rot.bmp	2	2	3.183696	5696.304331
036	2	2	60	129	black_mb069.bmp	1	2	1.796748	5699.603204
036	2	2	61	130	black_mb042.bmp	1	2	1.688708	5701.519215
036	2	2	62	131	other_00737_941201_fa_edt.bmp	2	2	3.185494	5703.318603
036	2	2	63	132	black_mb065.bmp	1	9	1.446400	5706.617454
036	2	2	64	133	black_mb040.bmp	1	1	2.240233	5708.183588
036	2	2	65	134	white_mw046.bmp	0	2	1.683025	5710.532784
036	2	2	66	135	white_mw091.bmp	0	5	2.226289	5712.365477
036	2	2	67	136	white_mw051.bmp	0	7	1.285628	5714.698026
036	2	2	68	137	white_mw098.bmp	0	5	1.374164	5716.097598
036	2	2	69	138	black_mb059.bmp	1	9	1.083317	5717.580404
