SUBJECT ID	CONDITION	BLOCK	TRIAL NUM	CUMULATIVE TRIAL NUM	STIM	INK	MASK	STIM RACE	RESPONSE	RT	START TIME
010	0	80	01	01	black_mb002.bmp	pd_sm_inkblot_170816_1750_007.png	pdPL_noiseMask_170814_1952_057.png	1	1	1.955601	10047.598567
010	0	80	02	02	white_mw004.bmp	pd_sm_inkblot_170816_1750_061.png	pdPL_noiseMask_170814_1952_085.png	0	1	1.150320	10049.947733
010	0	80	03	03	other_00122_931230_fa_edt.bmp	pd_sm_inkblot_170816_1750_017.png	pdPL_noiseMask_170814_1952_087.png	2	1	1.276836	10051.397217
010	0	1	01	01	white_00659_941121_fa_edt.bmp	pd_sm_inkblot_170816_1750_088.png	pdPL_noiseMask_170814_1952_067.png	0	1	1.278989	10081.169921
010	0	1	02	02	other_00110_931230_fb_edt.bmp	pd_sm_inkblot_170816_1750_033.png	pdPL_noiseMask_170814_1952_049.png	2	0	0.867058	10082.686036
010	0	1	03	03	white_00898_960530_fa_edt.bmp	pd_sm_inkblot_170816_1750_084.png	pdPL_noiseMask_170814_1952_063.png	0	0	0.846910	10083.785629
010	0	1	04	04	black_mb017.bmp	pd_sm_inkblot_170816_1750_096.png	pdPL_noiseMask_170814_1952_063.png	1	0	1.140454	10084.868626
010	0	1	05	05	other_00114_931230_fa_edt.bmp	pd_sm_inkblot_170816_1750_066.png	pdPL_noiseMask_170814_1952_041.png	2	0	0.766279	10086.234866
010	0	1	06	06	white_mw028.bmp	pd_sm_inkblot_170816_1750_036.png	pdPL_noiseMask_170814_1952_061.png	0	0	0.934630	10087.234398
010	0	1	07	07	black_mb025.bmp	pd_sm_inkblot_170816_1750_012.png	pdPL_noiseMask_170814_1952_094.png	1	0	0.968337	10088.400639
010	0	1	08	08	white_mw013.bmp	pd_sm_inkblot_170816_1750_059.png	pdPL_noiseMask_170814_1952_028.png	0	1	1.112557	10089.600226
010	0	1	09	09	black_00332_940422_fa_edt_contrast.bmp	pd_sm_inkblot_170816_1750_092.png	pdPL_noiseMask_170814_1952_092.png	1	1	1.123271	10090.949737
010	0	1	10	10	other_00614_940928_fa_edt.bmp	pd_sm_inkblot_170816_1750_096.png	pdPL_noiseMask_170814_1952_079.png	2	1	1.277484	10092.299298
010	0	1	11	11	black_00917_960620_fa_edt.bmp	pd_sm_inkblot_170816_1750_036.png	pdPL_noiseMask_170814_1952_079.png	1	0	0.818048	10093.798731
010	0	1	12	12	black_00801_941205_fa_edt.bmp	pd_sm_inkblot_170816_1750_055.png	pdPL_noiseMask_170814_1952_067.png	1	0	0.904411	10094.848347
010	0	1	13	13	white_00874_940307_fa_edt.bmp	pd_sm_inkblot_170816_1750_041.png	pdPL_noiseMask_170814_1952_006.png	0	0	1.219495	10095.981276
010	0	1	14	14	other_00070_941121_fb_edt.bmp	pd_sm_inkblot_170816_1750_014.png	pdPL_noiseMask_170814_1952_062.png	2	1	0.921765	10097.430759
010	0	1	15	15	other_00596_940928_fa_edt.bmp	pd_sm_inkblot_170816_1750_063.png	pdPL_noiseMask_170814_1952_021.png	2	1	1.108345	10098.580347
010	0	1	16	16	white_mw001.bmp	pd_sm_inkblot_170816_1750_016.png	pdPL_noiseMask_170814_1952_045.png	0	0	1.311103	10099.913198
010	0	1	17	17	other_00097_931230_fa_edt.bmp	pd_sm_inkblot_170816_1750_093.png	pdPL_noiseMask_170814_1952_052.png	2	0	1.434364	10101.445977
010	0	1	18	18	other_00205_940128_fa_edt.bmp	pd_sm_inkblot_170816_1750_081.png	pdPL_noiseMask_170814_1952_075.png	2	0	1.008457	10103.112063
010	0	1	19	19	other_00580_940928_fa_edt.bmp	pd_sm_inkblot_170816_1750_010.png	pdPL_noiseMask_170814_1952_056.png	2	0	0.855567	10104.344957
010	0	1	20	20	black_mb003.bmp	pd_sm_inkblot_170816_1750_083.png	pdPL_noiseMask_170814_1952_027.png	1	0	0.748577	10105.427900
010	0	1	21	21	black_mb033.bmp	pd_sm_inkblot_170816_1750_099.png	pdPL_noiseMask_170814_1952_056.png	1	0	0.805594	10106.410882
010	0	1	22	22	white_00766_941201_fb_edt.bmp	pd_sm_inkblot_170816_1750_021.png	pdPL_noiseMask_170814_1952_096.png	0	0	0.884427	10107.443847
010	0	1	23	23	black_00467_940519_fb_edt.bmp	pd_sm_inkblot_170816_1750_079.png	pdPL_noiseMask_170814_1952_037.png	1	0	0.744297	10108.560126
010	0	1	24	24	other_00046_931230_fa_edt.bmp	pd_sm_inkblot_170816_1750_071.png	pdPL_noiseMask_170814_1952_022.png	2	0	0.770042	10109.526424
010	0	1	25	25	black_00531_940519_fa_edt.bmp	pd_sm_inkblot_170816_1750_042.png	pdPL_noiseMask_170814_1952_002.png	1	1	0.698327	10110.526080
010	0	1	26	26	white_00253_940128_fa_edt.bmp	pd_sm_inkblot_170816_1750_042.png	pdPL_noiseMask_170814_1952_051.png	0	1	0.701013	10111.459080
010	0	1	27	27	white_00960_960627_fb_edt.bmp	pd_sm_inkblot_170816_1750_012.png	pdPL_noiseMask_170814_1952_075.png	0	1	0.736132	10112.392085
010	0	1	28	28	white_00597_940928_fb_edt.bmp	pd_sm_inkblot_170816_1750_052.png	pdPL_noiseMask_170814_1952_056.png	0	1	0.769849	10113.358442
010	0	1	29	29	black_00964_960627_fb_edt.bmp	pd_sm_inkblot_170816_1750_084.png	pdPL_noiseMask_170814_1952_088.png	1	1	0.706113	10114.358050
010	0	1	30	30	other_00282_940422_fb_edt.bmp	pd_sm_inkblot_170816_1750_052.png	pdPL_noiseMask_170814_1952_010.png	2	1	0.677256	10115.291045
010	0	2	01	31	white_00785_941205_fb_edt.bmp	pd_sm_inkblot_170816_1750_092.png	pdPL_noiseMask_170814_1952_039.png	0	0	1.313327	10122.238546
010	0	2	02	32	black_mb023.bmp	pd_sm_inkblot_170816_1750_066.png	pdPL_noiseMask_170814_1952_082.png	1	0	0.980000	10123.788009
010	0	2	03	33	other_00619_940928_fa_edt.bmp	pd_sm_inkblot_170816_1750_054.png	pdPL_noiseMask_170814_1952_019.png	2	0	0.899576	10125.004262
010	0	2	04	34	white_mw024.bmp	pd_sm_inkblot_170816_1750_071.png	pdPL_noiseMask_170814_1952_023.png	0	0	0.894759	10126.137173
010	0	2	05	35	white_mw002.bmp	pd_sm_inkblot_170816_1750_004.png	pdPL_noiseMask_170814_1952_065.png	0	1	0.786366	10127.253438
010	0	2	06	36	black_mb026.bmp	pd_sm_inkblot_170816_1750_046.png	pdPL_noiseMask_170814_1952_034.png	1	1	0.754007	10128.269767
010	0	2	07	37	other_00234_940128_fb_edt.bmp	pd_sm_inkblot_170816_1750_042.png	pdPL_noiseMask_170814_1952_088.png	2	0	0.795146	10129.252742
010	0	2	08	38	other_00611_940928_fa_edt_rot.bmp	pd_sm_inkblot_170816_1750_059.png	pdPL_noiseMask_170814_1952_063.png	2	1	0.738734	10130.269068
010	0	2	09	39	black_mb030.bmp	pd_sm_inkblot_170816_1750_085.png	pdPL_noiseMask_170814_1952_074.png	1	0	0.852237	10131.235344
010	0	2	10	40	black_00108_940128_fb_edt.bmp	pd_sm_inkblot_170816_1750_004.png	pdPL_noiseMask_170814_1952_096.png	1	0	0.817291	10132.318334
010	0	2	11	41	other_00578_940928_fa_edt.bmp	pd_sm_inkblot_170816_1750_041.png	pdPL_noiseMask_170814_1952_051.png	2	0	0.679726	10133.367905
010	0	2	12	42	other_00582_940928_fb_edt.bmp	pd_sm_inkblot_170816_1750_092.png	pdPL_noiseMask_170814_1952_048.png	2	1	0.755464	10134.284306
010	0	2	13	43	white_00109_931230_fa_edt.bmp	pd_sm_inkblot_170816_1750_058.png	pdPL_noiseMask_170814_1952_003.png	0	1	0.804420	10135.267241
010	0	2	14	44	other_00058_931230_fa_edt.bmp	pd_sm_inkblot_170816_1750_084.png	pdPL_noiseMask_170814_1952_065.png	2	1	0.747374	10136.300229
010	0	2	15	45	white_00658_941121_fb_edt.bmp	pd_sm_inkblot_170816_1750_010.png	pdPL_noiseMask_170814_1952_076.png	0	1	0.804343	10137.283213
010	0	2	16	46	black_mb014.bmp	pd_sm_inkblot_170816_1750_068.png	pdPL_noiseMask_170814_1952_062.png	1	1	0.795002	10138.316178
010	0	2	17	47	black_mb005.bmp	pd_sm_inkblot_170816_1750_075.png	pdPL_noiseMask_170814_1952_065.png	1	1	0.706963	10139.332493
010	0	2	18	48	white_00299_940422_fa_edt.bmp	pd_sm_inkblot_170816_1750_081.png	pdPL_noiseMask_170814_1952_069.png	0	1	0.686002	10140.265493
010	0	2	19	49	black_00257_940128_fa_edt.bmp	pd_sm_inkblot_170816_1750_063.png	pdPL_noiseMask_170814_1952_021.png	1	1	0.681653	10141.181832
010	0	2	20	50	other_00119_931230_fb_edt.bmp	pd_sm_inkblot_170816_1750_099.png	pdPL_noiseMask_170814_1952_027.png	2	1	0.661288	10142.098121
010	0	2	21	51	black_mb031.bmp	pd_sm_inkblot_170816_1750_016.png	pdPL_noiseMask_170814_1952_003.png	1	1	0.682306	10142.981137
010	0	2	22	52	white_00223_940128_fb_edt.bmp	pd_sm_inkblot_170816_1750_063.png	pdPL_noiseMask_170814_1952_001.png	0	0	0.757885	10143.897496
010	0	2	23	53	black_mb013.bmp	pd_sm_inkblot_170816_1750_094.png	pdPL_noiseMask_170814_1952_022.png	1	0	1.222867	10144.880545
010	0	2	24	54	other_00588_940928_fa_edt.bmp	pd_sm_inkblot_170816_1750_039.png	pdPL_noiseMask_170814_1952_067.png	2	1	0.875173	10146.332052
010	0	2	25	55	white_00897_960530_fb_edt.bmp	pd_sm_inkblot_170816_1750_008.png	pdPL_noiseMask_170814_1952_079.png	0	1	0.769753	10147.429562
010	0	2	26	56	white_00341_940422_fa_edt.bmp	pd_sm_inkblot_170816_1750_009.png	pdPL_noiseMask_170814_1952_041.png	0	1	0.994031	10148.429211
010	0	2	27	57	other_00584_940928_fa_edt.bmp	pd_sm_inkblot_170816_1750_083.png	pdPL_noiseMask_170814_1952_016.png	2	1	1.073743	10149.645430
010	0	2	28	58	black_39M_NE_C.bmp	pd_sm_inkblot_170816_1750_081.png	pdPL_noiseMask_170814_1952_069.png	1	1	0.862201	10150.944974
010	0	2	29	59	other_00490_940519_fb_edt.bmp	pd_sm_inkblot_170816_1750_024.png	pdPL_noiseMask_170814_1952_071.png	2	0	0.755173	10152.027923
010	0	2	30	60	white_mw006.bmp	pd_sm_inkblot_170816_1750_033.png	pdPL_noiseMask_170814_1952_095.png	0	0	0.651905	10153.010903
010	0	3	01	61	black_mb015.bmp	pd_sm_inkblot_170816_1750_021.png	pdPL_noiseMask_170814_1952_076.png	1	0	1.137857	10159.925115
010	0	3	02	62	other_00132_931230_fb_edt.bmp	pd_sm_inkblot_170816_1750_036.png	pdPL_noiseMask_170814_1952_032.png	2	1	1.331327	10161.291314
010	0	3	03	63	black_mb008.bmp	pd_sm_inkblot_170816_1750_006.png	pdPL_noiseMask_170814_1952_048.png	1	1	1.117478	10162.857385
010	0	3	04	64	white_00199_940128_fa_edt.bmp	pd_sm_inkblot_170816_1750_094.png	pdPL_noiseMask_170814_1952_094.png	0	0	1.007640	10164.206891
010	0	3	05	65	black_00273_940422_fa_edt.bmp	pd_sm_inkblot_170816_1750_054.png	pdPL_noiseMask_170814_1952_052.png	1	0	0.655001	10165.439780
010	0	3	06	66	white_mw015.bmp	pd_sm_inkblot_170816_1750_024.png	pdPL_noiseMask_170814_1952_019.png	0	0	0.691914	10166.322838
010	0	3	07	67	other_00512_940519_fa_edt.bmp	pd_sm_inkblot_170816_1750_003.png	pdPL_noiseMask_170814_1952_089.png	2	0	0.615662	10167.239157
010	0	3	08	68	other_00261_940128_fb_edt.bmp	pd_sm_inkblot_170816_1750_046.png	pdPL_noiseMask_170814_1952_092.png	2	1	0.789636	10168.088835
010	0	3	09	69	white_00939_960627_fa_edt.bmp	pd_sm_inkblot_170816_1750_090.png	pdPL_noiseMask_170814_1952_052.png	0	1	0.621674	10169.105145
010	0	3	10	70	other_00237_940128_fb_edt.bmp	pd_sm_inkblot_170816_1750_034.png	pdPL_noiseMask_170814_1952_076.png	2	0	0.659765	10169.954858
010	0	3	11	71	other_00178_931230_fa_edt.bmp	pd_sm_inkblot_170816_1750_088.png	pdPL_noiseMask_170814_1952_081.png	2	1	0.664725	10170.837884
010	0	3	12	72	black_38M_NE_C.bmp	pd_sm_inkblot_170816_1750_069.png	pdPL_noiseMask_170814_1952_030.png	1	1	0.660746	10171.737545
010	0	3	13	73	black_mb035.bmp	pd_sm_inkblot_170816_1750_009.png	pdPL_noiseMask_170814_1952_028.png	1	1	0.673711	10172.620563
010	0	3	14	74	white_00816_941205_fa_edt.bmp	pd_sm_inkblot_170816_1750_076.png	pdPL_noiseMask_170814_1952_005.png	0	1	0.622325	10173.520248
010	0	3	15	75	white_00340_940422_fa_edt.bmp	pd_sm_inkblot_170816_1750_083.png	pdPL_noiseMask_170814_1952_010.png	0	1	0.764718	10174.369942
010	0	3	16	76	white_mw025.bmp	pd_sm_inkblot_170816_1750_054.png	pdPL_noiseMask_170814_1952_032.png	0	1	0.580794	10175.369580
010	0	3	17	77	other_00570_940928_fa_edt.bmp	pd_sm_inkblot_170816_1750_004.png	pdPL_noiseMask_170814_1952_080.png	2	1	0.580606	10176.185955
010	0	3	18	78	white_00591_940928_fa_edt.bmp	pd_sm_inkblot_170816_1750_044.png	pdPL_noiseMask_170814_1952_074.png	0	1	0.596110	10177.002353
010	0	3	19	79	white_00657_941121_fa_edt.bmp	pd_sm_inkblot_170816_1750_085.png	pdPL_noiseMask_170814_1952_062.png	0	1	0.459157	10177.835381
010	0	3	20	80	other_00583_940928_fa_edt.bmp	pd_sm_inkblot_170816_1750_044.png	pdPL_noiseMask_170814_1952_009.png	2	1	0.591984	10178.518456
010	0	3	21	81	other_00545_940519_fa_edt.bmp	pd_sm_inkblot_170816_1750_008.png	pdPL_noiseMask_170814_1952_002.png	2	1	0.519564	10179.334831
010	0	3	22	82	black_00586_940928_fa_edt.bmp	pd_sm_inkblot_170816_1750_048.png	pdPL_noiseMask_170814_1952_009.png	1	1	0.697625	10180.084568
010	0	3	23	83	black_mb027.bmp	pd_sm_inkblot_170816_1750_008.png	pdPL_noiseMask_170814_1952_039.png	1	0	0.612760	10181.017565
010	0	3	24	84	white_mw010.bmp	pd_sm_inkblot_170816_1750_039.png	pdPL_noiseMask_170814_1952_031.png	0	1	0.771200	10181.867245
010	0	3	25	85	other_00193_940128_fa_edt.bmp	pd_sm_inkblot_170816_1750_012.png	pdPL_noiseMask_170814_1952_011.png	2	0	0.627439	10182.866902
010	0	3	26	86	white_mw019.bmp	pd_sm_inkblot_170816_1750_093.png	pdPL_noiseMask_170814_1952_027.png	0	1	0.697563	10183.716598
010	0	3	27	87	other_00461_940422_fb_edt.bmp	pd_sm_inkblot_170816_1750_021.png	pdPL_noiseMask_170814_1952_095.png	2	1	0.892479	10184.649598
010	0	3	28	88	black_mb006.bmp	pd_sm_inkblot_170816_1750_060.png	pdPL_noiseMask_170814_1952_032.png	1	0	0.744216	10185.765866
010	0	3	29	89	black_mb011.bmp	pd_sm_inkblot_170816_1750_052.png	pdPL_noiseMask_170814_1952_071.png	1	1	0.681593	10186.732187
010	0	3	30	90	black_mb009.bmp	pd_sm_inkblot_170816_1750_028.png	pdPL_noiseMask_170814_1952_061.png	1	1	0.636975	10187.648512
010	0	4	01	91	white_mw008.bmp	pd_sm_inkblot_170816_1750_075.png	pdPL_noiseMask_170814_1952_038.png	0	1	1.123757	10194.546065
010	0	4	02	92	other_00029_940128_fa_edt.bmp	pd_sm_inkblot_170816_1750_019.png	pdPL_noiseMask_170814_1952_034.png	2	0	1.118172	10195.895588
010	0	4	03	93	black_mb020.bmp	pd_sm_inkblot_170816_1750_034.png	pdPL_noiseMask_170814_1952_001.png	1	1	1.048860	10197.245099
010	0	4	04	94	black_mb001.bmp	pd_sm_inkblot_170816_1750_067.png	pdPL_noiseMask_170814_1952_019.png	1	0	0.701940	10198.527974
010	0	4	05	95	other_00618_940928_fb_edt.bmp	pd_sm_inkblot_170816_1750_048.png	pdPL_noiseMask_170814_1952_045.png	2	1	0.696784	10199.460982
010	0	4	06	96	black_00746_941201_fb_edt.bmp	pd_sm_inkblot_170816_1750_088.png	pdPL_noiseMask_170814_1952_075.png	1	0	0.699721	10200.393960
010	0	4	07	97	black_00857_940307_fa_edt.bmp	pd_sm_inkblot_170816_1750_089.png	pdPL_noiseMask_170814_1952_080.png	1	0	0.686847	10201.326960
010	0	4	08	98	black_00929_960627_fa_edt.bmp	pd_sm_inkblot_170816_1750_024.png	pdPL_noiseMask_170814_1952_025.png	1	0	0.602511	10202.243310
010	0	4	09	99	black_00716_941201_fa_edt_rot.bmp	pd_sm_inkblot_170816_1750_010.png	pdPL_noiseMask_170814_1952_038.png	1	0	0.593424	10203.076351
010	0	4	10	100	white_00129_931230_fb_edt.bmp	pd_sm_inkblot_170816_1750_099.png	pdPL_noiseMask_170814_1952_088.png	0	0	0.681088	10203.892725
010	0	4	11	101	other_00116_931230_fa_edt.bmp	pd_sm_inkblot_170816_1750_069.png	pdPL_noiseMask_170814_1952_094.png	2	1	0.620610	10204.809050
010	0	4	12	102	other_00216_940128_fa_edt.bmp	pd_sm_inkblot_170816_1750_006.png	pdPL_noiseMask_170814_1952_096.png	2	0	0.578733	10205.658760
010	0	4	13	103	other_00318_940422_fb_edt.bmp	pd_sm_inkblot_170816_1750_079.png	pdPL_noiseMask_170814_1952_028.png	2	1	0.947135	10206.458475
010	0	4	14	104	other_00616_940928_fa_edt_rot.bmp	pd_sm_inkblot_170816_1750_075.png	pdPL_noiseMask_170814_1952_025.png	2	0	0.819924	10207.641383
010	0	4	15	105	black_mb010.bmp	pd_sm_inkblot_170816_1750_044.png	pdPL_noiseMask_170814_1952_049.png	1	0	0.834472	10208.690995
010	0	4	16	106	white_00807_941205_fb_edt.bmp	pd_sm_inkblot_170816_1750_019.png	pdPL_noiseMask_170814_1952_030.png	0	0	0.592162	10209.757302
010	0	4	17	107	other_00415_940422_fb_edt_rot.bmp	pd_sm_inkblot_170816_1750_067.png	pdPL_noiseMask_170814_1952_069.png	2	0	0.623818	10210.573670
010	0	4	18	108	white_00248_940128_fa_edt.bmp	pd_sm_inkblot_170816_1750_046.png	pdPL_noiseMask_170814_1952_081.png	0	0	0.638205	10211.423368
010	0	4	19	109	other_00516_940519_fb_edt.bmp	pd_sm_inkblot_170816_1750_028.png	pdPL_noiseMask_170814_1952_005.png	2	1	0.611683	10212.289762
010	0	4	20	110	white_00283_940422_fa_edt.bmp	pd_sm_inkblot_170816_1750_067.png	pdPL_noiseMask_170814_1952_082.png	0	0	0.490364	10213.122760
010	0	4	21	111	black_mb021.bmp	pd_sm_inkblot_170816_1750_019.png	pdPL_noiseMask_170814_1952_023.png	1	0	0.598200	10213.839157
010	0	4	22	112	black_mb018.bmp	pd_sm_inkblot_170816_1750_041.png	pdPL_noiseMask_170814_1952_045.png	1	0	0.629164	10214.672191
010	0	4	23	113	white_00761_941201_fb_edt.bmp	pd_sm_inkblot_170816_1750_089.png	pdPL_noiseMask_170814_1952_025.png	0	0	0.779565	10215.521904
010	0	4	24	114	white_00602_940928_fb_edt.bmp	pd_sm_inkblot_170816_1750_028.png	pdPL_noiseMask_170814_1952_009.png	0	0	0.483058	10216.538194
010	0	4	25	115	white_mw018.bmp	pd_sm_inkblot_170816_1750_003.png	pdPL_noiseMask_170814_1952_037.png	0	0	0.638597	10217.254620
010	0	4	26	116	other_00139_931230_fb_edt.bmp	pd_sm_inkblot_170816_1750_009.png	pdPL_noiseMask_170814_1952_006.png	2	0	0.460389	10218.120975
010	0	4	27	117	white_mw012.bmp	pd_sm_inkblot_170816_1750_096.png	pdPL_noiseMask_170814_1952_048.png	0	0	0.545273	10218.804065
010	0	4	28	118	black_mb032.bmp	pd_sm_inkblot_170816_1750_058.png	pdPL_noiseMask_170814_1952_005.png	1	1	0.682774	10219.570445
010	0	4	29	119	other_00575_940928_fb_edt.bmp	pd_sm_inkblot_170816_1750_068.png	pdPL_noiseMask_170814_1952_074.png	2	1	0.822246	10220.486795
010	0	4	30	120	white_mw009.bmp	pd_sm_inkblot_170816_1750_069.png	pdPL_noiseMask_170814_1952_092.png	0	0	0.676738	10221.536409
010	0	5	01	121	other_00617_940928_fb_edt.bmp	pd_sm_inkblot_170816_1750_060.png	pdPL_noiseMask_170814_1952_023.png	2	1	0.529057	10228.483937
010	0	5	02	122	black_mb004.bmp	pd_sm_inkblot_170816_1750_039.png	pdPL_noiseMask_170814_1952_041.png	1	1	0.794704	10229.250334
010	0	5	03	123	black_mb019.bmp	pd_sm_inkblot_170816_1750_033.png	pdPL_noiseMask_170814_1952_031.png	1	0	0.698379	10230.266620
010	0	5	04	124	black_00453_940422_fb_edt.bmp	pd_sm_inkblot_170816_1750_059.png	pdPL_noiseMask_170814_1952_011.png	1	0	0.557153	10231.199624
010	0	5	05	125	white_00972_960627_fa_edt.bmp	pd_sm_inkblot_170816_1750_034.png	pdPL_noiseMask_170814_1952_089.png	0	0	0.854287	10231.982676
010	0	5	06	126	other_00601_940928_fb_edt.bmp	pd_sm_inkblot_170816_1750_094.png	pdPL_noiseMask_170814_1952_082.png	2	0	0.603284	10233.065645
010	0	5	07	127	white_mw016.bmp	pd_sm_inkblot_170816_1750_055.png	pdPL_noiseMask_170814_1952_034.png	0	0	0.602109	10233.898661
010	0	5	08	128	white_mw003.bmp	pd_sm_inkblot_170816_1750_066.png	pdPL_noiseMask_170814_1952_080.png	0	0	0.537215	10234.731700
010	0	5	09	129	other_00247_941121_fb_edt.bmp	pd_sm_inkblot_170816_1750_087.png	pdPL_noiseMask_170814_1952_030.png	2	0	0.554651	10235.498100
010	0	5	10	130	black_mb029.bmp	pd_sm_inkblot_170816_1750_003.png	pdPL_noiseMask_170814_1952_089.png	1	0	0.539577	10236.281235
010	0	5	11	131	black_00183_940128_fb_edt.bmp	pd_sm_inkblot_170816_1750_076.png	pdPL_noiseMask_170814_1952_010.png	1	0	0.501264	10237.047547
010	0	5	12	132	black_00358_940422_fb_edt.bmp	pd_sm_inkblot_170816_1750_090.png	pdPL_noiseMask_170814_1952_095.png	1	0	0.511936	10237.780615
010	0	5	13	133	black_00677_941121_fa_edt.bmp	pd_sm_inkblot_170816_1750_071.png	pdPL_noiseMask_170814_1952_006.png	1	0	0.531047	10238.513690
010	0	5	14	134	other_00587_940928_fa_edt.bmp	pd_sm_inkblot_170816_1750_089.png	pdPL_noiseMask_170814_1952_001.png	2	0	0.668553	10239.280094
010	0	5	15	135	white_00050_931230_fa_edt.bmp	pd_sm_inkblot_170816_1750_014.png	pdPL_noiseMask_170814_1952_022.png	0	0	0.480928	10240.179760
010	0	5	16	136	other_00096_940128_fb_edt.bmp	pd_sm_inkblot_170816_1750_016.png	pdPL_noiseMask_170814_1952_061.png	2	0	0.508361	10240.896170
010	0	5	17	137	black_mb016.bmp	pd_sm_inkblot_170816_1750_014.png	pdPL_noiseMask_170814_1952_051.png	1	0	0.871414	10241.629242
010	0	5	18	138	white_00519_940519_fb_edt.bmp	pd_sm_inkblot_170816_1750_068.png	pdPL_noiseMask_170814_1952_016.png	0	0	0.507638	10242.728848
010	0	5	19	139	white_00757_941201_fa_edt.bmp	pd_sm_inkblot_170816_1750_060.png	pdPL_noiseMask_170814_1952_002.png	0	0	0.582689	10243.461926
010	0	5	20	140	white_00120_931230_fa_edt.bmp	pd_sm_inkblot_170816_1750_079.png	pdPL_noiseMask_170814_1952_049.png	0	0	0.638274	10244.278297
010	0	5	21	141	other_00246_940128_fa_edt.bmp	pd_sm_inkblot_170816_1750_058.png	pdPL_noiseMask_170814_1952_038.png	2	0	0.595512	10245.144654
010	0	5	22	142	white_00577_940928_fa_edt.bmp	pd_sm_inkblot_170816_1750_006.png	pdPL_noiseMask_170814_1952_021.png	0	0	0.562776	10245.977746
010	0	5	23	143	other_00610_940928_fa_edt.bmp	pd_sm_inkblot_170816_1750_076.png	pdPL_noiseMask_170814_1952_003.png	2	0	0.570917	10246.777402
010	0	5	24	144	black_00488_940519_fb_edt.bmp	pd_sm_inkblot_170816_1750_093.png	pdPL_noiseMask_170814_1952_081.png	1	0	0.539357	10247.577103
010	0	5	25	145	black_00558_940519_fa_edt.bmp	pd_sm_inkblot_170816_1750_087.png	pdPL_noiseMask_170814_1952_016.png	1	0	0.652950	10248.343511
010	0	5	26	146	white_mw022.bmp	pd_sm_inkblot_170816_1750_048.png	pdPL_noiseMask_170814_1952_071.png	0	0	0.545696	10249.226528
010	0	5	27	147	white_00764_941201_fa_edt.bmp	pd_sm_inkblot_170816_1750_087.png	pdPL_noiseMask_170814_1952_011.png	0	0	0.787298	10249.992923
010	0	5	28	148	other_00566_940928_fb_edt.bmp	pd_sm_inkblot_170816_1750_090.png	pdPL_noiseMask_170814_1952_037.png	2	0	0.531156	10251.009214
010	0	5	29	149	other_00383_941031_fa_edt_rot.bmp	pd_sm_inkblot_170816_1750_085.png	pdPL_noiseMask_170814_1952_031.png	2	0	0.708817	10251.775616
010	0	5	30	150	other_00604_940928_fb_edt.bmp	pd_sm_inkblot_170816_1750_055.png	pdPL_noiseMask_170814_1952_039.png	2	0	0.543703	10252.708618
