SUBJECT ID	CONDITION	BLOCK	TRIAL NUM	CUMULATIVE TRIAL NUM	STIM	STIM VALENCE	STIM RACE	RESPONSE	CORRECT	RT	START TIME	CORRECTION TIME	CORRECTION START
030	0	1	1	1	Great	1	NaN	0	1	1.221691	0.200068	NaN	NaN
030	0	1	2	2	Horrid	0	NaN	1	1	0.718883	0.200096	NaN	NaN
030	0	1	3	3	Great	1	NaN	0	1	0.553867	0.200055	NaN	NaN
030	0	1	4	4	Awful	0	NaN	1	1	1.100800	0.200067	NaN	NaN
030	0	1	5	5	Terrific	1	NaN	0	1	1.114482	0.200093	NaN	NaN
030	0	1	6	6	Superb	1	NaN	0	1	0.669901	0.200003	NaN	NaN
030	0	1	7	7	Superb	1	NaN	0	1	0.588687	0.200039	NaN	NaN
030	0	1	8	8	Horrid	0	NaN	1	1	0.951084	0.200057	NaN	NaN
030	0	1	9	9	Fantastic	1	NaN	0	1	0.899589	0.200018	NaN	NaN
030	0	1	10	10	Revolting	0	NaN	1	1	1.073323	0.200075	NaN	NaN
030	0	1	11	11	Revolting	0	NaN	1	1	0.551785	0.200051	NaN	NaN
030	0	1	12	12	Revolting	0	NaN	1	1	0.434724	0.200031	NaN	NaN
030	0	1	13	13	Nice	1	NaN	0	1	1.305924	0.200054	NaN	NaN
030	0	1	14	14	Fabulous	1	NaN	0	1	0.957598	0.200013	NaN	NaN
030	0	1	15	15	Fabulous	1	NaN	0	1	0.432673	0.200014	NaN	NaN
030	0	1	16	16	Foul	0	NaN	1	1	0.591659	0.200108	NaN	NaN
030	0	1	17	17	Foul	0	NaN	1	1	0.586581	0.200029	NaN	NaN
030	0	1	18	18	Wonderful	1	NaN	0	1	1.242912	0.200038	NaN	NaN
030	0	1	19	19	Horrible	0	NaN	1	1	1.178849	0.200021	NaN	NaN
030	0	1	20	20	Terrible	0	NaN	0	0	0.762677	0.200054	1.978641	6480.132013
030	0	2	1	21	B0jpg.jpg	NaN	1	0	1	1.353831	0.200043	NaN	NaN
030	0	2	2	22	W2jpg.jpg	NaN	0	1	1	0.699136	0.200042	NaN	NaN
030	0	2	3	23	W6jpg.jpg	NaN	0	1	1	0.590194	0.200033	NaN	NaN
030	0	2	4	24	B7jpg.jpg	NaN	1	0	1	0.909181	0.200036	NaN	NaN
030	0	2	5	25	B1jpg.jpg	NaN	1	0	1	1.168774	0.200049	NaN	NaN
030	0	2	6	26	B4jpg.jpg	NaN	1	0	1	0.555460	0.200050	NaN	NaN
030	0	2	7	27	W1jpg.jpg	NaN	0	1	1	0.966387	0.200064	NaN	NaN
030	0	2	8	28	B5jpg.jpg	NaN	1	0	1	0.807489	0.200005	NaN	NaN
030	0	2	9	29	W2jpg.jpg	NaN	0	1	1	0.551303	0.200079	NaN	NaN
030	0	2	10	30	B2jpg.jpg	NaN	1	0	1	0.840305	0.200047	NaN	NaN
030	0	2	11	31	W3jpg.jpg	NaN	0	1	1	1.656036	0.200135	NaN	NaN
030	0	2	12	32	W8jpg.jpg	NaN	0	1	1	0.629994	0.200022	NaN	NaN
030	0	2	13	33	W1jpg.jpg	NaN	0	1	1	1.043583	0.200065	NaN	NaN
030	0	2	14	34	W3jpg.jpg	NaN	0	1	1	1.007925	0.200058	NaN	NaN
030	0	2	15	35	W2jpg.jpg	NaN	0	1	1	0.736674	0.200082	NaN	NaN
030	0	2	16	36	B8jpg.jpg	NaN	1	1	0	0.972335	0.200081	1.988538	6511.754512
030	0	2	17	37	B9jpg.jpg	NaN	1	0	1	1.836003	0.200021	NaN	NaN
030	0	2	18	38	W2jpg.jpg	NaN	0	1	1	0.650545	0.200047	NaN	NaN
030	0	2	19	39	B7jpg.jpg	NaN	1	1	0	0.655036	0.200012	1.503131	6517.235844
030	0	2	20	40	B5jpg.jpg	NaN	1	0	1	1.142811	0.200052	NaN	NaN
030	0	3	1	41	B9jpg.jpg	NaN	1	0	1	2.441990	0.200066	NaN	NaN
030	0	3	2	42	Nice	1	NaN	0	1	1.287386	0.200026	NaN	NaN
030	0	3	3	43	W3jpg.jpg	NaN	0	1	1	0.835314	0.200026	NaN	NaN
030	0	3	4	44	Horrid	0	NaN	1	1	0.584454	0.200037	NaN	NaN
030	0	3	5	45	W1jpg.jpg	NaN	0	1	1	0.664130	0.200033	NaN	NaN
030	0	3	6	46	Awful	0	NaN	1	1	0.620213	0.200019	NaN	NaN
030	0	3	7	47	B5jpg.jpg	NaN	1	0	1	1.297419	0.200055	NaN	NaN
030	0	3	8	48	Horrid	0	NaN	0	0	1.659969	0.200056	4.507987	6539.794808
030	0	3	9	49	W8jpg.jpg	NaN	0	1	1	1.553686	0.200043	NaN	NaN
030	0	3	10	50	Wonderful	1	NaN	0	1	1.892177	0.200034	NaN	NaN
030	0	3	11	51	B5jpg.jpg	NaN	1	0	1	4.937673	0.200075	NaN	NaN
030	0	3	12	52	Revolting	0	NaN	1	1	3.638085	0.200066	NaN	NaN
030	0	3	13	53	B6jpg.jpg	NaN	1	0	1	2.333001	0.200023	NaN	NaN
030	0	3	14	54	Nice	1	NaN	0	1	1.431939	0.200060	NaN	NaN
030	0	3	15	55	B5jpg.jpg	NaN	1	0	1	3.158942	0.200030	NaN	NaN
030	0	3	16	56	Superb	1	NaN	0	1	2.560816	0.200012	NaN	NaN
030	0	3	17	57	W9jpg.jpg	NaN	0	1	1	0.843213	0.200046	NaN	NaN
030	0	3	18	58	Superb	1	NaN	0	1	0.888109	0.200016	NaN	NaN
030	0	3	19	59	W4jpg.jpg	NaN	0	1	1	0.926041	0.200069	NaN	NaN
030	0	3	20	60	Disgusting	0	NaN	1	1	0.840454	0.200022	NaN	NaN
030	0	3	1	61	W7jpg.jpg	NaN	0	1	1	1.349658	0.200080	NaN	NaN
030	0	3	2	62	Foul	0	NaN	1	1	2.344324	0.200078	NaN	NaN
030	0	3	3	63	B4jpg.jpg	NaN	1	0	1	1.098554	0.200075	NaN	NaN
030	0	3	4	64	Nice	1	NaN	0	1	0.535081	0.200049	NaN	NaN
030	0	3	5	65	W3jpg.jpg	NaN	0	1	1	0.674069	0.200043	NaN	NaN
030	0	3	6	66	Fantastic	1	NaN	0	1	0.821167	0.200027	NaN	NaN
030	0	3	7	67	B7jpg.jpg	NaN	1	0	1	0.989037	0.200067	NaN	NaN
030	0	3	8	68	Awful	0	NaN	1	1	0.877865	0.200025	NaN	NaN
030	0	3	9	69	B3jpg.jpg	NaN	1	0	1	1.728997	0.200045	NaN	NaN
030	0	3	10	70	Foul	0	NaN	1	1	1.563792	0.200070	NaN	NaN
030	0	3	11	71	B5jpg.jpg	NaN	1	0	1	0.812336	0.200056	NaN	NaN
030	0	3	12	72	Horrid	0	NaN	1	1	0.803477	0.200077	NaN	NaN
030	0	3	13	73	B9jpg.jpg	NaN	1	0	1	0.858586	0.200069	NaN	NaN
030	0	3	14	74	Wonderful	1	NaN	0	1	1.119079	0.200009	NaN	NaN
030	0	3	15	75	B1jpg.jpg	NaN	1	0	1	1.586771	0.200067	NaN	NaN
030	0	3	16	76	Horrid	0	NaN	1	1	0.835480	0.200012	NaN	NaN
030	0	3	17	77	W2jpg.jpg	NaN	0	1	1	0.753870	0.200046	NaN	NaN
030	0	3	18	78	Foul	0	NaN	0	0	1.900197	0.200069	3.796195	6607.538680
030	0	3	19	79	W3jpg.jpg	NaN	0	1	1	0.797701	0.200075	NaN	NaN
030	0	3	20	80	Fabulous	1	NaN	0	1	3.811987	0.200084	NaN	NaN
030	0	3	21	81	W5jpg.jpg	NaN	0	1	1	0.916751	0.200058	NaN	NaN
030	0	3	22	82	Horrible	0	NaN	1	1	0.822549	0.200003	NaN	NaN
030	0	3	23	83	B6jpg.jpg	NaN	1	0	1	1.380297	0.200022	NaN	NaN
030	0	3	24	84	Lovely	1	NaN	0	1	1.652819	0.200061	NaN	NaN
030	0	3	25	85	W5jpg.jpg	NaN	0	1	1	0.964220	0.200007	NaN	NaN
030	0	3	26	86	Fabulous	1	NaN	0	1	0.571769	0.200024	NaN	NaN
030	0	3	27	87	B2jpg.jpg	NaN	1	0	1	1.157679	0.200083	NaN	NaN
030	0	3	28	88	Horrid	0	NaN	1	1	3.111502	0.200021	NaN	NaN
030	0	3	29	89	B4jpg.jpg	NaN	1	0	1	0.699345	0.200049	NaN	NaN
030	0	3	30	90	Terrible	0	NaN	1	1	1.295633	0.200007	NaN	NaN
030	0	3	31	91	B4jpg.jpg	NaN	1	0	1	0.994281	0.200045	NaN	NaN
030	0	3	32	92	Fabulous	1	NaN	0	1	0.754063	0.200078	NaN	NaN
030	0	3	33	93	W1jpg.jpg	NaN	0	1	1	1.578540	0.200023	NaN	NaN
030	0	3	34	94	Disgusting	0	NaN	1	1	0.578480	0.200047	NaN	NaN
030	0	3	35	95	W6jpg.jpg	NaN	0	1	1	1.034361	0.200080	NaN	NaN
030	0	3	36	96	Nice	1	NaN	0	1	0.991991	0.200012	NaN	NaN
030	0	3	37	97	W9jpg.jpg	NaN	0	1	1	0.544241	0.200096	NaN	NaN
030	0	3	38	98	Fantastic	1	NaN	0	1	0.616630	0.200036	NaN	NaN
030	0	3	39	99	W4jpg.jpg	NaN	0	1	1	0.830439	0.200077	NaN	NaN
030	0	3	40	100	Great	1	NaN	0	1	1.004191	0.200047	NaN	NaN
030	0	8	1	101	Horrible	0	NaN	0	1	3.787800	0.200077	NaN	NaN
030	0	8	2	102	Disgusting	0	NaN	0	1	0.852682	0.200063	NaN	NaN
030	0	8	3	103	Wonderful	1	NaN	1	1	0.705789	0.200069	NaN	NaN
030	0	8	4	104	Disgusting	0	NaN	0	1	1.188988	0.200030	NaN	NaN
030	0	8	5	105	Disgusting	0	NaN	0	1	0.845984	0.200026	NaN	NaN
030	0	8	6	106	Fabulous	1	NaN	1	1	0.700298	0.200032	NaN	NaN
030	0	8	7	107	Foul	0	NaN	0	1	2.063412	0.200038	NaN	NaN
030	0	8	8	108	Horrid	0	NaN	0	1	0.692382	0.200038	NaN	NaN
030	0	8	9	109	Awful	0	NaN	0	1	1.697294	0.200030	NaN	NaN
030	0	8	10	110	Lovely	1	NaN	1	1	0.661976	0.200052	NaN	NaN
030	0	8	11	111	Great	1	NaN	1	1	1.251019	0.200078	NaN	NaN
030	0	8	12	112	Superb	1	NaN	1	1	0.584225	0.200005	NaN	NaN
030	0	8	13	113	Revolting	0	NaN	0	1	1.039840	0.200048	NaN	NaN
030	0	8	14	114	Terrible	0	NaN	1	0	0.927862	0.200012	1.631705	6675.931592
030	0	8	15	115	Horrible	0	NaN	0	1	0.959025	0.200007	NaN	NaN
030	0	8	16	116	Revolting	0	NaN	0	1	1.496998	0.200003	NaN	NaN
030	0	8	17	117	Lovely	1	NaN	1	1	0.486788	0.200056	NaN	NaN
030	0	8	18	118	Awful	0	NaN	0	1	0.730399	0.200020	NaN	NaN
030	0	8	19	119	Awful	0	NaN	0	1	0.590144	0.200004	NaN	NaN
030	0	8	20	120	Foul	0	NaN	1	0	0.606604	0.200045	1.134417	6683.928858
030	0	8	21	121	Wonderful	1	NaN	1	1	0.634458	0.200071	NaN	NaN
030	0	8	22	122	Superb	1	NaN	1	1	0.984603	0.200058	NaN	NaN
030	0	8	23	123	Fantastic	1	NaN	1	1	0.583736	0.200053	NaN	NaN
030	0	8	24	124	Fabulous	1	NaN	1	1	0.496727	0.200015	NaN	NaN
030	0	8	25	125	Terrific	1	NaN	1	1	0.643901	0.200076	NaN	NaN
030	0	8	26	126	Fabulous	1	NaN	1	1	0.748239	0.200034	NaN	NaN
030	0	8	27	127	Wonderful	1	NaN	1	1	0.638385	0.200080	NaN	NaN
030	0	8	28	128	Fantastic	1	NaN	1	1	0.525425	0.200018	NaN	NaN
030	0	8	29	129	Nice	1	NaN	1	1	0.615726	0.200023	NaN	NaN
030	0	8	30	130	Wonderful	1	NaN	1	1	0.479969	0.200026	NaN	NaN
030	0	8	31	131	Foul	0	NaN	1	0	0.331582	0.200030	0.931579	6695.524907
030	0	8	32	132	Horrid	0	NaN	0	1	0.743578	0.200032	NaN	NaN
030	0	8	33	133	Terrible	0	NaN	0	1	0.856536	0.200070	NaN	NaN
030	0	8	34	134	Horrid	0	NaN	0	1	0.551647	0.200052	NaN	NaN
030	0	8	35	135	Terrific	1	NaN	0	0	0.433903	0.200024	1.121959	6700.389901
030	0	8	36	136	Foul	0	NaN	0	1	1.446423	0.200082	NaN	NaN
030	0	8	37	137	Lovely	1	NaN	1	1	0.756398	0.200060	NaN	NaN
030	0	8	38	138	Terrific	1	NaN	1	1	1.214704	0.200011	NaN	NaN
030	0	8	39	139	Terrible	0	NaN	0	1	0.799424	0.200012	NaN	NaN
030	0	8	40	140	Fantastic	1	NaN	1	1	1.104309	0.200043	NaN	NaN
030	0	4	1	141	W3jpg.jpg	NaN	0	1	1	0.627814	0.200005	NaN	NaN
030	0	4	2	142	Awful	0	NaN	0	1	1.090013	0.200077	NaN	NaN
030	0	4	3	143	W4jpg.jpg	NaN	0	1	1	0.871742	0.200011	NaN	NaN
030	0	4	4	144	Terrific	1	NaN	1	1	0.988222	0.200026	NaN	NaN
030	0	4	5	145	B4jpg.jpg	NaN	1	0	1	0.660739	0.200103	NaN	NaN
030	0	4	6	146	Foul	0	NaN	0	1	1.489759	0.200078	NaN	NaN
030	0	4	7	147	W4jpg.jpg	NaN	0	1	1	0.917749	0.200069	NaN	NaN
030	0	4	8	148	Disgusting	0	NaN	0	1	1.432800	0.200047	NaN	NaN
030	0	4	9	149	B8jpg.jpg	NaN	1	1	0	0.655364	0.200046	1.543405	6727.480664
030	0	4	10	150	Wonderful	1	NaN	1	1	3.073773	0.200009	NaN	NaN
030	0	4	11	151	B1jpg.jpg	NaN	1	0	1	1.070541	0.200074	NaN	NaN
030	0	4	12	152	Horrid	0	NaN	0	1	0.820378	0.200049	NaN	NaN
030	0	4	13	153	B8jpg.jpg	NaN	1	0	1	1.171403	0.200055	NaN	NaN
030	0	4	14	154	Wonderful	1	NaN	1	1	1.404038	0.200033	NaN	NaN
030	0	4	15	155	W8jpg.jpg	NaN	0	1	1	2.066592	0.200044	NaN	NaN
030	0	4	16	156	Fantastic	1	NaN	1	1	0.576677	0.200074	NaN	NaN
030	0	4	17	157	W4jpg.jpg	NaN	0	1	1	0.641719	0.200084	NaN	NaN
030	0	4	18	158	Superb	1	NaN	1	1	0.536746	0.200056	NaN	NaN
030	0	4	19	159	B6jpg.jpg	NaN	1	0	1	0.946379	0.200068	NaN	NaN
030	0	4	20	160	Horrible	0	NaN	0	1	1.859337	0.200083	NaN	NaN
030	0	4	1	161	Horrible	0	NaN	0	1	2.794066	0.200051	NaN	NaN
030	0	4	2	162	B3jpg.jpg	NaN	1	0	1	1.490189	0.200084	NaN	NaN
030	0	4	3	163	Terrific	1	NaN	1	1	0.879397	0.200080	NaN	NaN
030	0	4	4	164	B8jpg.jpg	NaN	1	0	1	1.194664	0.200074	NaN	NaN
030	0	4	5	165	Disgusting	0	NaN	0	1	0.674555	0.200064	NaN	NaN
030	0	4	6	166	W9jpg.jpg	NaN	0	1	1	0.605699	0.200013	NaN	NaN
030	0	4	7	167	Fabulous	1	NaN	1	1	1.036009	0.200026	NaN	NaN
030	0	4	8	168	W1jpg.jpg	NaN	0	1	1	1.024377	0.200004	NaN	NaN
030	0	4	9	169	Nice	1	NaN	1	1	0.807085	0.200061	NaN	NaN
030	0	4	10	170	W1jpg.jpg	NaN	0	1	1	0.493326	0.200070	NaN	NaN
030	0	4	11	171	Terrible	0	NaN	0	1	0.729497	0.200055	NaN	NaN
030	0	4	12	172	B1jpg.jpg	NaN	1	0	1	0.861943	0.200040	NaN	NaN
030	0	4	13	173	Wonderful	1	NaN	1	1	0.748359	0.200082	NaN	NaN
030	0	4	14	174	W6jpg.jpg	NaN	0	1	1	0.653410	0.200053	NaN	NaN
030	0	4	15	175	Fabulous	1	NaN	1	1	1.577768	0.200003	NaN	NaN
030	0	4	16	176	W6jpg.jpg	NaN	0	1	1	0.593737	0.200076	NaN	NaN
030	0	4	17	177	Terrific	1	NaN	1	1	0.519496	0.200036	NaN	NaN
030	0	4	18	178	W4jpg.jpg	NaN	0	1	1	0.482458	0.200030	NaN	NaN
030	0	4	19	179	Horrid	0	NaN	0	1	0.575405	0.200037	NaN	NaN
030	0	4	20	180	B7jpg.jpg	NaN	1	0	1	0.592850	0.200014	NaN	NaN
030	0	4	21	181	Terrible	0	NaN	0	1	0.632138	0.200080	NaN	NaN
030	0	4	22	182	B3jpg.jpg	NaN	1	0	1	1.015645	0.200037	NaN	NaN
030	0	4	23	183	Fantastic	1	NaN	1	1	0.684883	0.200050	NaN	NaN
030	0	4	24	184	B8jpg.jpg	NaN	1	0	1	0.841254	0.200030	NaN	NaN
030	0	4	25	185	Horrible	0	NaN	0	1	0.981833	0.200059	NaN	NaN
030	0	4	26	186	W1jpg.jpg	NaN	0	1	1	0.702943	0.200066	NaN	NaN
030	0	4	27	187	Superb	1	NaN	1	1	0.994632	0.200074	NaN	NaN
030	0	4	28	188	W6jpg.jpg	NaN	0	1	1	0.867031	0.200069	NaN	NaN
030	0	4	29	189	Fantastic	1	NaN	1	1	1.224732	0.200008	NaN	NaN
030	0	4	30	190	B4jpg.jpg	NaN	1	0	1	0.608555	0.200011	NaN	NaN
030	0	4	31	191	Terrible	0	NaN	0	1	0.506585	0.200036	NaN	NaN
030	0	4	32	192	W6jpg.jpg	NaN	0	1	1	0.653847	0.200060	NaN	NaN
030	0	4	33	193	Fabulous	1	NaN	1	1	0.634855	0.200021	NaN	NaN
030	0	4	34	194	B8jpg.jpg	NaN	1	0	1	1.057911	0.200077	NaN	NaN
030	0	4	35	195	Disgusting	0	NaN	0	1	0.879701	0.200025	NaN	NaN
030	0	4	36	196	B5jpg.jpg	NaN	1	0	1	0.732671	0.200073	NaN	NaN
030	0	4	37	197	Terrible	0	NaN	0	1	1.110975	0.200051	NaN	NaN
030	0	4	38	198	W5jpg.jpg	NaN	0	1	1	0.850352	0.200047	NaN	NaN
030	0	4	39	199	Terrible	0	NaN	1	0	0.982720	0.200017	1.910866	6804.887546
030	0	4	40	200	B7jpg.jpg	NaN	1	0	1	2.850843	0.200038	NaN	NaN
